Longitude,Latitude,Speed,Distance,Time,Time in epoch, Acc X,Acc Y,Acc Z,Heading,gyro_x,gyro_y,gyro_z,pitch_deg,roll_deg,azimuth_deg
-87.64718622,41.86967742,0,5.113095,14-55-48-481,1500580548483,0.27119505,0.05632591,0.3170847,337,0.028476294,0.045824114,-0.01000372,-1.5902175559,0.2946103381,167.3131745125
-87.64718622,41.86967742,0,5.113095,14-55-48-491,1500580548492,0.27119505,0.05632591,0.3170847,337,0.028476294,0.045824114,-0.01000372,-1.5902175559,0.2946103381,167.3131745125
-87.64718622,41.86967742,0,5.113095,14-55-48-581,1500580548582,0.30548722,0.0869846,0.410722,331,0.006105741,-0.019157017,-0.005210031,-2.0509837181,0.6213017012,167.5019609411
-87.64718622,41.86967742,0,5.113095,14-55-48-593,1500580548594,0.29459506,0.044587493,0.4623973,330,0.0066383732,-0.017026488,-0.014264778,-2.1237563955,0.685679916,167.4723315805
-87.64718467,41.86967706,0,0,14-55-48-681,1500580548684,0.22237445,0.036961664,0.31281942,329,0.01569312,0.014398815,-0.005742663,-2.2322264163,0.7581268254,167.4344103702
-87.64718467,41.86967706,0,0,14-55-48-699,1500580548700,0.22237445,0.036961664,0.31281942,329,0.01569312,0.014398815,-0.005742663,-2.2322264163,0.7581268254,167.4344103702
-87.64718467,41.86967706,0,0,14-55-48-780,1500580548783,0.30658492,0.09046318,0.50550103,327,0.005573109,0.0042788023,-0.0046773986,-2.1835696427,0.8040589938,167.3464238733
-87.64718467,41.86967706,0,0,14-55-48-792,1500580548792,0.30658492,0.09046318,0.50550103,327,0.005573109,0.0042788023,-0.0046773986,-2.1835696427,0.8040589938,167.3464238733
-87.64718467,41.86967706,0,0,14-55-48-882,1500580548883,0.26604927,0.06479016,0.3931123,328,0.0013120507,0.003213538,0.014497362,-2.212342455,0.7966677686,167.3452490808
-87.64718467,41.86967706,0,0,14-55-48-891,1500580548894,0.32230642,0.095171265,0.40753478,328,0.003975212,0.006941964,0.013432098,-2.2127868441,0.7820801387,167.3453856846
-87.64718467,41.86967706,0,0,14-55-48-983,1500580548984,0.30879053,0.08718451,0.44429085,328,0.014627856,-0.012765429,0.0001162916,-2.1713109473,0.773013116,167.2833812273
-87.64718467,41.86967706,0,0,14-55-49-000,1500580549001,0.2951399,0.083254844,0.40916175,328,0.009301534,-0.0063738422,0.005975246,-2.1824179021,0.7713611173,167.2669204714
-87.64718467,41.86967706,0,0,14-55-49-083,1500580549084,0.29057774,0.06398776,0.5252502,328,0.027943663,-0.0031780486,0.0017141883,-2.164315126,0.7404871148,167.192526051
-87.64718467,41.86967706,0,0,14-55-49-093,1500580549094,0.29057774,0.06398776,0.5252502,328,0.027943663,-0.0031780486,0.0017141883,-2.164315126,0.7404871148,167.192526051
-87.64718467,41.86967706,0,0,14-55-49-184,1500580549185,0.3772579,0.03174815,0.46422616,328,-0.023721663,-0.03460335,-0.003612134,-2.1384515475,0.7215880881,167.0963023459
-87.64718467,41.86967706,0,0,14-55-49-195,1500580549195,0.3772579,0.03174815,0.46422616,328,-0.023721663,-0.03460335,-0.003612134,-2.1384515475,0.7215880881,167.0963023459
-87.64718345,41.86967653,0,0.117148675,14-55-49-292,1500580549293,0.25360513,0.04128562,0.45990407,330,-0.03703747,-0.028744396,0.019823683,-2.2631364374,0.7018529502,167.2314034877
-87.64718345,41.86967653,0,0.117148675,14-55-49-302,1500580549302,0.2720863,0.06642616,0.3905477,333,-0.0008184781,0.000550377,0.036335282,-2.3235398556,0.6047787265,167.3489237226
-87.64718345,41.86967653,0,0.117148675,14-55-49-385,1500580549386,0.3307444,0.12547171,0.44248578,335,-0.012003755,-0.010102267,0.0043773493,-2.2803380554,0.4884353653,167.35966078
-87.64718345,41.86967653,0,0.117148675,14-55-49-399,1500580549400,0.3307444,0.12547171,0.44248578,335,-0.028515354,-0.017026488,0.0017141883,-2.2803380554,0.4884353653,167.35966078
-87.64718345,41.86967653,0,0.117148675,14-55-49-486,1500580549487,0.24886975,0.056016408,0.4551514,336,0.005573109,-0.006906474,0.012366833,-2.3409984595,0.469585057,167.4794076565
-87.64718345,41.86967653,0,0.117148675,14-55-49-499,1500580549500,0.24886975,0.056016408,0.4551514,336,0.0071710055,0.026116723,0.020356316,-2.3409984595,0.469585057,167.4794076565
-87.64718345,41.86967653,0,0.117148675,14-55-49-585,1500580549586,0.22631939,0.06062146,0.3244789,338,-0.012003755,0.030377781,0.012899466,-2.201211381,0.3745204565,167.4852816192
-87.64718345,41.86967653,0,0.117148675,14-55-49-594,1500580549595,0.22631939,0.06062146,0.3244789,338,-0.012003755,0.030377781,0.012899466,-2.201211381,0.3745204565,167.4852816192
-87.64718345,41.86967653,0,0.117148675,14-55-49-687,1500580549688,0.3642125,0.03109789,0.4789463,339,-0.010938491,-0.005308577,0.015562626,-1.9767312376,0.2967618477,167.4675777688
-87.64718345,41.86967653,0,0.117148675,14-55-49-703,1500580549704,0.36010796,0.059507117,0.48453578,340,-0.010405858,-0.021287546,0.010236304,-1.9482873416,0.2784922923,167.4587941456
-87.64718345,41.86967653,0,0.117148675,14-55-49-786,1500580549787,0.2538494,0.10703792,0.3469499,339,-0.0093405945,0.029312517,0.017160524,-2.1014372583,0.3054787699,167.4701049388
-87.64718345,41.86967653,0,0.117148675,14-55-49-799,1500580549799,0.2538494,0.10703792,0.3469499,339,-0.041298527,-0.07028971,-0.0004163406,-2.1014372583,0.3054787699,167.4701049388
-87.64718345,41.86967653,0,0.117148675,14-55-49-886,1500580549887,0.4586614,-0.062296744,0.80583334,342,-0.010938491,-0.09638869,0.018225787,-2.3222820336,0.2174286268,167.6172545343
-87.64718345,41.86967653,0,0.117148675,14-55-49-898,1500580549899,0.4586614,-0.062296744,0.80583334,342,-0.010938491,-0.09638869,0.018225787,-2.3222820336,0.2174286268,167.6172545343
-87.64718345,41.86967653,0,0.117148675,14-55-49-988,1500580549989,0.57240766,0.27939346,0.45467612,346,-0.027982721,-0.08733394,0.046987925,-2.6624677161,0.0830884709,167.6938209549
-87.64718345,41.86967653,0,0.117148675,14-55-49-997,1500580549999,0.57240766,0.27939346,0.45467612,346,-0.027982721,-0.08733394,0.046987925,-2.6624677161,0.0830884709,167.6938209549
-87.64718345,41.86967653,0,0.117148675,14-55-50-089,1500580550089,0.16278802,0.08957619,0.32277563,350,-0.106279664,0.064466245,0.06190163,-2.7257921074,-0.084494576,167.9880655044
-87.64718345,41.86967653,0,0.117148675,14-55-50-098,1500580550101,0.22371244,0.05810244,0.4460536,351,-0.08018068,0.063400984,0.060836364,-2.6496199168,-0.1484456906,168.1066922299
-87.64718345,41.86967653,0,0.117148675,14-55-50-189,1500580550190,0.2184175,0.040840756,0.56623644,354,0.041792102,0.023986194,-0.017460572,-2.4906991306,-0.2686077546,168.2607539768
-87.64718345,41.86967653,0,0.117148675,14-55-50-199,1500580550199,0.2184175,0.040840756,0.56623644,354,0.041792102,0.023986194,-0.017460572,-2.4906991306,-0.2686077546,168.2607539768
-87.64718345,41.86967653,0,0.117148675,14-55-50-289,1500580550289,0.25412232,0.12369093,0.4815434,351,0.101446904,-0.14379296,-0.05794062,-2.5704031694,-0.1467817658,167.9236294997
-87.64718345,41.86967653,0,0.117148675,14-55-50-300,1500580550301,0.25412232,0.12369093,0.4815434,351,0.04711842,-0.14752138,-0.055277463,-2.5704031694,-0.1467817658,167.9236294997
-87.64718208,41.86967617,0,0.23665552,14-55-50-418,1500580550419,0.2624824,0.072012015,0.3891805,347,0.055640537,-0.16190244,-0.061136417,-2.9503232639,0.027507483,167.7347064673
-87.64718208,41.86967617,0,0.23665552,14-55-50-419,1500580550419,0.2624824,0.072012015,0.3891805,347,0.055640537,-0.16190244,-0.061136417,-2.9503232639,0.027507483,167.7347064673
-87.64718208,41.86967617,0,0.23665552,14-55-50-506,1500580550507,0.30031684,0.05570201,0.48299628,339,0.090794265,-0.1065087,-0.06699537,-3.9730429199,0.5190135352,166.8954947843
-87.64718208,41.86967617,0,0.23665552,14-55-50-586,1500580550587,0.3076838,-0.0720013,0.6341393,338,-0.013601652,-0.0063738422,-0.04515745,-4.1342802074,0.5968541063,166.7457360566
-87.64718208,41.86967617,0,0.23665552,14-55-50-593,1500580550593,0.33667812,0.0064600147,0.97407126,336,-0.02318903,-0.009569635,-0.03557007,-4.2029551982,0.7859211063,166.8494183282
-87.64718208,41.86967617,0,0.23665552,14-55-50-598,1500580550607,0.33667812,0.0064600147,0.97407126,336,-0.06739751,0.047954645,-0.017460572,-4.2029551982,0.7859211063,166.8494183282
-87.64718208,41.86967617,0,0.23665552,14-55-50-699,1500580550699,0.25211,0.0925247,0.5071501,336,-0.011471123,0.14063266,0.0283458,-3.7844289535,0.7616322066,167.3150596447
-87.64718208,41.86967617,0,0.23665552,14-55-50-698,1500580550701,0.40822595,0.20438291,0.59559894,336,-0.011471123,0.14063266,0.0283458,-3.6298523811,0.7245062864,167.3662177616
-87.64718208,41.86967617,0,0.23665552,14-55-50-799,1500580550800,0.24047825,-0.065721236,0.5942424,335,0.12967642,0.09482628,0.024084741,-3.0771679876,0.6612817866,167.0896770624
-87.64718208,41.86967617,0,0.23665552,14-55-50-799,1500580550801,0.24047825,-0.065721236,0.5942424,335,0.12967642,0.09482628,0.024084741,-3.0771679876,0.6612817866,167.0896770624
-87.64718208,41.86967617,0,0.23665552,14-55-50-917,1500580550918,0.3053161,0.046310134,0.25673342,343,-0.12545443,0.04209569,0.08001113,-2.8215336438,0.1732890496,166.9514340336
-87.64718208,41.86967617,0,0.23665552,14-55-50-917,1500580550920,0.3053161,0.046310134,0.25673342,343,-0.13291128,0.023453562,0.07894586,-2.8215336438,0.1732890496,166.9514340336
-87.64718208,41.86967617,0,0.23665552,14-55-50-994,1500580550995,0.5508688,0.08041856,0.3673557,351,-0.14303128,0.036769368,0.052314248,-2.7049809479,-0.1391922784,167.6070502317
-87.64718208,41.86967617,0,0.23665552,14-55-50-999,1500580551003,0.5508688,0.08041856,0.3673557,351,-0.14303128,0.036769368,0.052314248,-2.7049809479,-0.1391922784,167.6070502317
-87.64718208,41.86967617,0,0.23665552,14-55-51-094,1500580551098,0.48143002,0.0948726,0.3385873,353,0.0881311,-0.06070233,-0.024384791,-2.7003756929,-0.2373930697,167.8652996842
-87.64718208,41.86967617,0,0.23665552,14-55-51-101,1500580551102,0.48143002,0.0948726,0.3385873,353,0.08600057,-0.0271465,-0.022254262,-2.7003756929,-0.2373930697,167.8652996842
-87.64718208,41.86967617,0,0.23665552,14-55-51-198,1500580551199,0.2584269,0.009929287,0.2121914,349,0.02954156,-0.06443076,-0.08989856,-2.86686689,-0.0578677839,167.5963951366
-87.64718208,41.86967617,0,0.23665552,14-55-51-202,1500580551203,0.2584269,0.009929287,0.2121914,349,0.02954156,-0.06443076,-0.08989856,-2.86686689,-0.0578677839,167.5963951366
-87.64718017,41.86967532,0,0.42061713,14-55-51-297,1500580551298,0.33084404,0.066970974,0.6116874,347,0.08706584,-0.0026454164,0.0006489238,-2.7595855355,0.0332913859,167.3141853805
-87.64718017,41.86967532,0,0.42061713,14-55-51-300,1500580551303,0.33084404,0.066970974,0.6116874,347,0.08706584,-0.0026454164,0.0006489238,-2.7595855355,0.0332913859,167.3141853805
-87.64718017,41.86967532,0,0.42061713,14-55-51-394,1500580551400,0.17458062,0.030452272,0.40177575,348,0.051912114,-0.036201246,0.072554275,-2.7952948317,-0.0417172113,166.7723054925
-87.64718017,41.86967532,0,0.42061713,14-55-51-400,1500580551401,0.17458062,0.030452272,0.40177575,348,0.026878398,-0.052712847,0.087467976,-2.7952948317,-0.0417172113,166.7723054925
-87.64718017,41.86967532,0,0.42061713,14-55-51-494,1500580551495,0.46819296,0.11558604,0.5173866,0,-0.14462918,-0.027679132,0.08054376,-2.7320692647,-0.6401696719,167.1181316305
-87.64718017,41.86967532,0,0.42061713,14-55-51-500,1500580551501,0.46819296,0.11558604,0.5173866,0,-0.14462918,-0.027679132,0.08054376,-2.7320692647,-0.6401696719,167.1181316305
-87.64718017,41.86967532,0,0.42061713,14-55-51-600,1500580551600,0.38339755,-0.048242662,0.78034675,6,-0.049820643,0.024518827,0.03313949,-2.7290503211,-0.8842052873,167.7614398277
-87.64718017,41.86967532,0,0.42061713,14-55-51-601,1500580551603,0.40133524,-0.002801525,0.8454224,7,-0.013601652,-0.036201246,0.02568264,-2.7006664028,-0.9183861686,167.8166687373
-87.64718017,41.86967532,0,0.42061713,14-55-51-698,1500580551700,0.34070674,0.017407814,0.52574545,6,0.017823651,-0.050049685,-0.012134249,-2.7986010702,-0.9073871094,167.747151072
-87.64718017,41.86967532,0,0.42061713,14-55-51-701,1500580551702,0.34070674,0.017407814,0.52574545,6,0.017823651,-0.050049685,-0.012134249,-2.7986010702,-0.9073871094,167.747151072
-87.64718017,41.86967532,0,0.42061713,14-55-51-795,1500580551796,0.30468586,0.0001209821,0.45397395,2,0.0050404766,-0.08520341,-0.029711112,-3.1121929842,-0.8131841265,167.6667187643
-87.64718017,41.86967532,0,0.42061713,14-55-51-802,1500580551802,0.30468586,0.0001209821,0.45397395,2,0.0050404766,-0.08520341,-0.029711112,-3.1121929842,-0.8131841265,167.6667187643
-87.64718017,41.86967532,0,0.42061713,14-55-51-895,1500580551895,0.2935646,0.020755824,0.3554782,359,-0.005612168,0.006941964,-0.005210031,-3.5179610759,-0.7134613369,167.716210315
-87.64718017,41.86967532,0,0.42061713,14-55-51-901,1500580551902,0.2935646,0.020755824,0.3554782,359,-0.005612168,0.006941964,-0.005210031,-3.5179610759,-0.7134613369,167.716210315
-87.64718017,41.86967532,0,0.42061713,14-55-51-993,1500580552001,0.2850186,0.06492023,0.47201484,357,-0.025852192,0.0016156414,-0.021188997,-3.4813890414,-0.5941006329,167.6822779352
-87.64718017,41.86967532,0,0.42061713,14-55-52-001,1500580552002,0.2850186,0.06492023,0.47201484,357,-0.027982721,-0.0026454164,-0.012666881,-3.4813890414,-0.5941006329,167.6822779352
-87.64718017,41.86967532,0,0.42061713,14-55-52-094,1500580552094,0.3038579,0.0024814014,0.38365263,356,0.019954178,-0.001580152,-0.014264778,-3.4984278021,-0.5211108302,167.7158961263
-87.64718017,41.86967532,0,0.42061713,14-55-52-104,1500580552105,0.3038579,0.0024814014,0.38365263,356,0.019954178,-0.001580152,-0.014264778,-3.4984278021,-0.5211108302,167.7158961263
-87.64718017,41.86967532,0,0.42061713,14-55-52-200,1500580552202,0.28105843,0.080593646,0.5368258,355,0.011964695,-0.006906474,-0.0014816051,-3.4767118559,-0.4535153295,167.5720523424
-87.64718017,41.86967532,0,0.42061713,14-55-52-202,1500580552203,0.28105843,0.080593646,0.5368258,355,0.011964695,-0.006906474,-0.0014816051,-3.4767118559,-0.4535153295,167.5720523424
-87.64717885,41.86967452,0,0.55950755,14-55-52-295,1500580552296,0.35028744,-0.036838766,0.6144097,354,0.073750034,-0.07455077,-0.052081667,-3.7397518324,-0.4153182969,167.47014592
-87.64717885,41.86967452,0,0.55950755,14-55-52-303,1500580552305,0.35028744,-0.036838766,0.6144097,353,0.08280478,-0.13207504,-0.04036376,-3.7397518324,-0.4153182969,167.47014592
-87.64717885,41.86967452,0,0.55950755,14-55-52-394,1500580552395,0.29098436,-0.0166634,0.44496584,351,0.03699841,-0.0042433133,-0.0014816051,-4.2903034993,-0.2792178931,167.1194566872
-87.64717885,41.86967452,0,0.55950755,14-55-52-403,1500580552403,0.29098436,-0.0166634,0.44496584,351,0.03699841,-0.0042433133,-0.0014816051,-4.2903034993,-0.2792178931,167.1194566872
-87.64717885,41.86967452,0,0.55950755,14-55-52-496,1500580552496,0.15019083,0.034091484,0.27002785,349,-0.016797444,0.17951481,-0.003612134,-4.2458385409,-0.1637954202,166.9543163735
-87.64717885,41.86967452,0,0.55950755,14-55-52-503,1500580552503,0.15019083,0.034091484,0.27002785,349,-0.016797444,0.17951481,-0.003612134,-4.2458385409,-0.1637954202,166.9543163735
-87.64717885,41.86967452,0,0.55950755,14-55-52-594,1500580552595,0.16698635,0.10906451,0.3959081,350,-0.07006067,0.06073782,0.0017141883,-3.8238370106,-0.176439501,167.1247978952
-87.64717885,41.86967452,0,0.55950755,14-55-52-608,1500580552609,0.18586819,0.08578663,0.4696571,350,-0.05354907,0.06553151,0.015562626,-3.7558919963,-0.1726318307,167.2041237122
-87.64717885,41.86967452,0,0.55950755,14-55-52-695,1500580552695,0.52868927,0.011459792,0.57118887,352,-0.055679597,-0.09532342,0.04112897,-3.5363383402,-0.271327824,167.3664363276
-87.64717885,41.86967452,0,0.55950755,14-55-52-706,1500580552707,0.49110058,0.06692589,0.51834404,352,-0.06420171,-0.08200762,0.011301569,-3.6341912588,-0.3115313847,167.425845313
-87.64717885,41.86967452,0,0.55950755,14-55-52-795,1500580552796,0.31399855,-0.014740181,0.5188674,353,-0.019460605,-0.04099494,-0.008938456,-3.8219817605,-0.3240533359,167.7150628432
-87.64717885,41.86967452,0,0.55950755,14-55-52-806,1500580552807,0.27893394,0.0069696154,0.39842927,352,-0.024254296,-0.0037106809,-0.014264778,-3.8632608625,-0.3109677874,167.7373429203
-87.64717885,41.86967452,0,0.55950755,14-55-52-909,1500580552910,0.40688118,0.06809572,0.5866864,353,-0.008807962,-0.038331777,0.007573142,-3.9551047087,-0.3330598475,167.9074692722
-87.64717885,41.86967452,0,0.55950755,14-55-52-898,1500580552911,0.40688118,0.06809572,0.5866864,353,-0.008807962,-0.038331777,0.007573142,-3.9551047087,-0.3330598475,167.9074692722
-87.64717885,41.86967452,0,0.55950755,14-55-52-999,1500580552999,0.47268948,0.06397139,0.5487233,353,0.020486811,-0.054310743,-0.009471089,-4.0711167524,-0.3414269893,167.89619946
-87.64717885,41.86967452,0,0.55950755,14-55-53-006,1500580553008,0.39289668,0.087913655,0.5394489,352,0.026345767,-0.07827919,-0.025450055,-4.1266961361,-0.3317145137,167.8722391564
-87.64717885,41.86967452,0,0.55950755,14-55-53-108,1500580553109,0.18363431,0.013100353,0.39743215,351,-0.039167996,-0.007971738,-0.0041447664,-4.2895432139,-0.2026888518,167.9094090459
-87.64717885,41.86967452,0,0.55950755,14-55-53-109,1500580553109,0.18363431,0.013100353,0.39743215,351,-0.039167996,-0.007971738,-0.0041447664,-4.2895432139,-0.2026888518,167.9094090459
-87.64717885,41.86967452,0,0.55950755,14-55-53-196,1500580553197,0.24161209,0.11341337,0.3145492,351,-0.017330077,0.048487276,0.012899466,-4.2095330973,-0.214844841,167.9492973506
-87.64717885,41.86967452,0,0.55950755,14-55-53-205,1500580553206,0.19101831,0.1259955,0.41189468,351,-0.035972204,0.030377781,0.022486845,-4.1537287442,-0.227370354,167.9647062574
-87.64717824,41.869674,0,0.6328314,14-55-53-298,1500580553299,0.44217125,-0.036366,0.47052988,353,-0.055146966,0.09748944,-0.023852158,-3.8970007163,-0.3297249009,168.2452767681
-87.64717824,41.869674,0,0.6328314,14-55-53-306,1500580553307,0.2805299,0.09318883,0.6004634,353,-0.039167996,0.06499888,0.017693156,-3.7895934303,-0.310479002,168.3137152636
-87.64717824,41.869674,0,0.6328314,14-55-53-402,1500580553402,0.92506623,-0.14967841,1.246564,356,0.15630803,-0.053778112,0.0054426137,-3.6750439009,-0.5230886502,168.3258866607
-87.64717824,41.869674,0,0.6328314,14-55-53-406,1500580553406,1.3211815,-0.29192457,1.2762555,357,0.23886602,-0.045788627,-0.121323854,-3.7168702718,-0.5476060411,168.1603775167
-87.64717824,41.869674,0,0.6328314,14-55-53-506,1500580553506,-0.30236784,0.18987606,-0.004016956,345,-0.022123767,-0.06070233,0.014497362,-4.0384684482,0.1330051008,166.9470353918
-87.64717824,41.869674,0,0.6328314,14-55-53-510,1500580553510,-0.30236784,0.18987606,-0.004016956,345,-0.022123767,-0.06070233,0.014497362,-4.0384684482,0.1330051008,166.9470353918
-87.64717824,41.869674,0,0.6328314,14-55-53-600,1500580553602,0.1446527,0.1696056,0.53925514,348,-0.023721663,0.071390465,0.019291053,-4.1863676569,-0.067406003,167.2574538292
-87.64717824,41.869674,0,0.6328314,14-55-53-605,1500580553606,0.1446527,0.1696056,0.53925514,348,-0.023721663,0.071390465,0.019291053,-4.1863676569,-0.067406003,167.2574538292
-87.64717824,41.869674,0,0.6328314,14-55-53-702,1500580553702,0.34769627,0.024520779,0.10738,353,-0.09882281,0.03197568,0.12635013,-3.9498433286,-0.3925614673,167.3189391921
-87.64717824,41.869674,0,0.6328314,14-55-53-707,1500580553708,0.6054816,-0.093454614,0.327826,355,-0.13024811,0.07192309,0.088533245,-3.9174737815,-0.5283567538,167.4250256903
-87.64717824,41.869674,0,0.6328314,14-55-53-802,1500580553802,0.74877065,-0.22208256,0.39951515,359,0.0881311,0.009605125,-0.045690082,-3.7629420322,-0.7681354004,167.5527365674
-87.64717824,41.869674,0,0.6328314,14-55-53-805,1500580553806,0.63773406,-0.20354602,0.12396763,358,0.019954178,-0.035135984,-0.05953852,-3.7487561562,-0.7275023382,167.4556795793
-87.64717824,41.869674,0,0.6328314,14-55-53-899,1500580553901,0.34104773,0.023794677,0.69195473,352,-0.106279664,-0.007439106,-0.12665017,-3.7532363334,-0.2743810787,167.6752565007
-87.64717824,41.869674,0,0.6328314,14-55-53-906,1500580553906,0.20495151,0.05848744,0.90508884,350,-0.05834276,-0.01968965,-0.115464896,-3.7454400993,-0.1195994272,167.7916156034
-87.64717824,41.869674,0,0.6328314,14-55-54-000,1500580554000,0.22476962,0.013061122,0.5364696,344,0.0071710055,-0.0734855,-0.037167966,-3.832801207,0.2717827787,167.8256436059
-87.64717824,41.869674,0,0.6328314,14-55-54-006,1500580554007,0.23458958,0.031106181,0.46315897,343,0.016758386,-0.02022228,-0.038765863,-3.9117129438,0.3160587062,167.8141688881
-87.64717824,41.869674,0,0.6328314,14-55-54-100,1500580554103,0.20254757,0.05352227,-0.23359878,342,-0.005079536,0.013866183,-0.03290691,-4.0325868015,0.4224005895,167.5789098523
-87.64717824,41.869674,0,0.6328314,14-55-54-106,1500580554107,-0.016621565,0.1267358,-0.2823047,341,-0.08390911,0.0538136,0.010768937,-4.0289271008,0.4575184606,167.5785820032
-87.64717824,41.869674,0,0.6328314,14-55-54-202,1500580554203,0.62659305,-0.17245603,1.2116873,343,-0.053016435,0.0042788023,-0.028113216,-3.7821732836,0.3371691934,168.251014127
-87.64717824,41.869674,0,0.6328314,14-55-54-206,1500580554207,0.5992813,-0.19882715,1.0811398,343,0.03433525,0.026649356,-0.0840396,-3.7692394666,0.3682769965,168.3190837923
-87.64717837,41.86967325,0,0.67278117,14-55-54-305,1500580554306,0.37303776,0.13598697,0.63768655,336,-0.026917458,-0.008504371,-0.055277463,-3.6567833901,0.8148135002,168.2581721653
-87.64717837,41.86967325,0,0.67278117,14-55-54-307,1500580554308,0.37303776,0.13598697,0.63768655,336,-0.026917458,-0.008504371,-0.055277463,-3.6567833901,0.8148135002,168.2581721653
-87.64717837,41.86967325,0,0.67278117,14-55-54-403,1500580554405,0.28499055,0.41773063,0.1569992,333,0.0881311,-0.001580152,0.0027794528,-3.7343786079,0.9743795258,168.0734565294
-87.64717837,41.86967325,0,0.67278117,14-55-54-409,1500580554410,0.28499055,0.41773063,0.1569992,333,0.016758386,0.09003259,0.013964729,-3.7343786079,0.9743795258,168.0734565294
-87.64717837,41.86967325,0,0.67278117,14-55-54-505,1500580554505,0.40135336,-0.0364199,0.9672429,338,0.07534793,0.012268286,0.07894586,-3.5127364081,0.6346815615,168.1279887597
-87.64717837,41.86967325,0,0.67278117,14-55-54-509,1500580554510,0.4761944,-0.112165764,0.90321517,340,0.07534793,0.012268286,0.07894586,-3.5212525867,0.5042443717,168.1150797022
-87.64717837,41.86967325,0,0.67278117,14-55-54-603,1500580554603,0.28681517,-0.064537205,0.17366546,343,0.070554234,0.031443045,0.03047633,-3.5449744741,0.2907261482,167.6481543101
-87.64717837,41.86967325,0,0.67278117,14-55-54-608,1500580554609,-0.05097101,0.020943634,0.2480881,343,0.070554234,0.031443045,0.03047633,-3.4874107069,0.3043051513,167.5484881898
-87.64717837,41.86967325,0,0.67278117,14-55-54-705,1500580554706,0.43564993,-0.21634857,0.4856148,348,-0.056744862,0.008007228,0.04858582,-3.3874246349,-0.0129094135,167.5800436637
-87.64717837,41.86967325,0,0.67278117,14-55-54-709,1500580554710,0.45778707,-0.24019714,0.8319954,349,-0.056744862,0.008007228,0.04858582,-3.3435502744,-0.0768526482,167.7044350689
-87.64717837,41.86967325,0,0.67278117,14-55-54-805,1500580554805,0.39635602,-0.15087612,0.33498293,349,-0.0061448,-0.03353809,-0.069658525,-3.4667419142,-0.0551283044,167.687687445
-87.64717837,41.86967325,0,0.67278117,14-55-54-809,1500580554809,0.26057842,-0.052204344,0.36785287,347,-0.019460605,-0.030342292,-0.062201682,-3.5054690868,0.0238290109,167.6914167283
-87.64717837,41.86967325,0,0.67278117,14-55-54-905,1500580554906,0.09941646,0.1602919,0.67543477,344,0.023682605,1.7744722E-05,0.018225787,-3.5410328146,0.2079293145,167.7520005063
-87.64717837,41.86967325,0,0.67278117,14-55-54-911,1500580554912,0.09941646,0.1602919,0.67543477,345,0.023682605,1.7744722E-05,0.018225787,-3.5410328146,0.2079293145,167.7520005063
-87.64717837,41.86967325,0,0.67278117,14-55-55-006,1500580555007,0.19669127,0.103049874,0.90122545,341,0.17122173,-0.04472336,-0.01000372,-3.3799871992,0.4224105946,167.7409492602
-87.64717837,41.86967325,0,0.67278117,14-55-55-010,1500580555011,0.10607557,0.15537941,0.9143396,339,0.17122173,-0.04472336,-0.01000372,-3.3801206014,0.4910185108,167.6626752923
-87.64717837,41.86967325,0,0.67278117,14-55-55-106,1500580555107,0.01918891,0.06783307,0.48771128,339,0.0077036372,-0.017559119,0.028878432,-3.647331689,0.5089731571,167.1714890683
-87.64717837,41.86967325,0,0.67278117,14-55-55-109,1500580555110,0.01918891,0.06783307,0.48771128,339,0.0077036372,-0.017559119,0.028878432,-3.647331689,0.5089731571,167.1714890683
-87.64717837,41.86967325,0,0.67278117,14-55-55-207,1500580555208,0.28464282,0.039854087,0.4805038,340,0.001844683,0.0058766995,0.017160524,-3.4844886666,0.4400656198,167.1035696672
-87.64717837,41.86967325,0,0.67278117,14-55-55-210,1500580555210,0.28464282,0.039854087,0.4805038,340,0.001844683,0.0058766995,0.017160524,-3.4844886666,0.4400656198,167.1035696672
-87.64717868,41.86967236,0,0.7209804,14-55-55-307,1500580555308,0.45730382,-0.00987428,0.52155876,342,-0.0008184781,0.020790402,0.003312085,-3.3964665247,0.3166299075,167.2006949572
-87.64717868,41.86967236,0,0.7209804,14-55-55-309,1500580555310,0.45730382,-0.00987428,0.52155876,342,-0.0008184781,0.020790402,0.003312085,-3.3964665247,0.3166299075,167.2006949572
-87.64717868,41.86967236,0,0.7209804,14-55-55-407,1500580555407,0.39331478,-0.016669484,0.5652222,342,0.04658579,-0.014895958,-0.012666881,-3.3835485026,0.2849342812,167.1164923851
-87.64717868,41.86967236,0,0.7209804,14-55-55-410,1500580555411,0.39331478,-0.016669484,0.5652222,342,0.04658579,-0.014895958,-0.012666881,-3.3835485026,0.2849342812,167.1164923851
-87.64717868,41.86967236,0,0.7209804,14-55-55-506,1500580555508,0.3101948,-0.021913549,0.44180897,341,0.011964695,0.000550377,0.0017141883,-3.4984892738,0.3486739801,166.940724297
-87.64717868,41.86967236,0,0.7209804,14-55-55-509,1500580555510,0.3101948,-0.021913549,0.44180897,341,0.011964695,0.000550377,0.0017141883,-3.4984892738,0.3486739801,166.940724297
-87.64717868,41.86967236,0,0.7209804,14-55-55-606,1500580555607,0.34971237,7.201785E-05,0.515596,341,-0.009873226,-0.0106349,-0.01479741,-3.5781548927,0.3710331113,166.9463113918
-87.64717868,41.86967236,0,0.7209804,14-55-55-610,1500580555610,0.34971237,7.201785E-05,0.515596,341,-0.009873226,-0.0106349,-0.01479741,-3.5781548927,0.3710331113,166.9463113918
-87.64717868,41.86967236,0,0.7209804,14-55-55-707,1500580555708,0.24759048,0.056322165,0.3801859,340,-0.010405858,0.023986194,-0.01000372,-3.5655559685,0.4434539539,166.8613301781
-87.64717868,41.86967236,0,0.7209804,14-55-55-710,1500580555711,0.24759048,0.056322165,0.3801859,340,-0.010405858,0.023986194,-0.01000372,-3.5655559685,0.4434539539,166.8613301781
-87.64717868,41.86967236,0,0.7209804,14-55-55-810,1500580555811,0.26784086,0.01763311,0.39726326,340,-0.017330077,0.012268286,0.005975246,-3.4829525144,0.4261615958,166.9581822605
-87.64717868,41.86967236,0,0.7209804,14-55-55-807,1500580555811,0.26784086,0.01763311,0.39726326,340,-0.017330077,0.012268286,0.005975246,-3.4829525144,0.4261615958,166.9581822605
-87.64717868,41.86967236,0,0.7209804,14-55-55-908,1500580555909,0.24323128,-0.008552971,0.5277841,339,-0.0002858459,0.0026809059,-0.022254262,-3.477563922,0.4697780632,167.1035560068
-87.64717868,41.86967236,0,0.7209804,14-55-55-911,1500580555911,0.24323128,-0.008552971,0.5277841,339,-0.0002858459,0.0026809059,-0.022254262,-3.477563922,0.4697780632,167.1035560068
-87.64717868,41.86967236,0,0.7209804,14-55-56-007,1500580556008,0.331556,0.007370316,0.47184914,339,-0.0008184781,0.013333551,-0.0020142372,-3.4924676083,0.524506875,167.1470506515
-87.64717868,41.86967236,0,0.7209804,14-55-56-011,1500580556012,0.331556,0.007370316,0.47184914,339,-0.0008184781,0.013333551,-0.0020142372,-3.4924676083,0.524506875,167.1470506515
-87.64717868,41.86967236,0,0.7209804,14-55-56-108,1500580556108,0.3548291,0.048939064,0.54017115,338,-0.039167996,-0.004775945,0.0006489238,-3.4159498528,0.5620273452,167.1855455976
-87.64717868,41.86967236,0,0.7209804,14-55-56-112,1500580556113,0.3548291,0.048939064,0.54017115,338,-0.039167996,-0.004775945,0.0006489238,-3.4159498528,0.5620273452,167.1855455976
-87.64717868,41.86967236,0,0.7209804,14-55-56-207,1500580556208,0.3570535,-0.0355534,0.62446016,338,0.038596306,-0.04152757,-0.027047953,-3.4804857489,0.5946525976,167.2731359436
-87.64717868,41.86967236,0,0.7209804,14-55-56-211,1500580556212,0.37833923,-0.035844266,0.7584585,337,0.038596306,-0.04152757,-0.027047953,-3.4980068917,0.6138557811,167.2808403969
-87.64717865,41.86967171,0,0.7764571,14-55-56-309,1500580556309,0.41318867,0.06051875,0.55926293,335,0.030074192,0.01546408,-0.045690082,-3.5638827856,0.7425665339,167.0466468707
-87.64717865,41.86967171,0,0.7764571,14-55-56-312,1500580556313,0.41318867,0.06051875,0.55926293,335,0.030074192,0.01546408,-0.045690082,-3.5638827856,0.7425665339,167.0466468707
-87.64717865,41.86967171,0,0.7764571,14-55-56-411,1500580556412,0.43512556,-0.024065895,0.6743625,334,0.035933148,0.0074745957,-0.017460572,-3.5585962191,0.8253594723,167.0629027209
-87.64717865,41.86967171,0,0.7764571,14-55-56-412,1500580556413,0.43512556,-0.024065895,0.6743625,334,0.035933148,0.0074745957,-0.017460572,-3.5585962191,0.8253594723,167.0629027209
-87.64717865,41.86967171,0,0.7764571,14-55-56-510,1500580556510,0.33836636,0.060707882,0.6102466,333,-0.01306902,0.0021482736,-0.015862675,-3.5576792662,0.9125721835,166.899633879
-87.64717865,41.86967171,0,0.7764571,14-55-56-512,1500580556513,0.33836636,0.060707882,0.6102466,333,-0.01306902,0.0021482736,-0.015862675,-3.5576792662,0.9125721835,166.899633879
-87.64717865,41.86967171,0,0.7764571,14-55-56-610,1500580556611,0.41609353,-0.0073345224,0.6056427,334,0.034867883,-0.015428591,0.015562626,-3.5712600302,0.8499792627,166.9746156957
-87.64717865,41.86967171,0,0.7764571,14-55-56-612,1500580556613,0.41609353,-0.0073345224,0.6056427,334,0.034867883,-0.015428591,0.015562626,-3.5712600302,0.8499792627,166.9746156957
-87.64717865,41.86967171,0,0.7764571,14-55-56-711,1500580556711,0.31547928,0.005694743,0.49473277,334,-0.014666916,0.010670389,-0.0004163406,-3.6056730845,0.7932982442,166.8610979517
-87.64717865,41.86967171,0,0.7764571,14-55-56-712,1500580556713,0.31547928,0.005694743,0.49473277,334,-0.014666916,0.010670389,-0.0004163406,-3.6056730845,0.7932982442,166.8610979517
-87.64717865,41.86967171,0,0.7764571,14-55-56-811,1500580556812,0.31235906,-0.043716,0.4984202,334,-0.025852192,0.0016156414,0.01875842,-3.5929574067,0.7877261439,166.8697722919
-87.64717865,41.86967171,0,0.7764571,14-55-56-812,1500580556813,0.31235906,-0.043716,0.4984202,334,-0.025852192,0.0016156414,0.01875842,-3.5929574067,0.7877261439,166.8697722919
-87.64717865,41.86967171,0,0.7764571,14-55-56-914,1500580556915,0.36943224,-0.015670324,0.39209414,335,-0.029580617,0.014398815,0.001181556,-3.5487829448,0.7295851191,166.9357109382
-87.64717865,41.86967171,0,0.7764571,14-55-56-914,1500580556915,0.36943224,-0.015670324,0.39209414,335,-0.029580617,0.014398815,0.001181556,-3.5487829448,0.7295851191,166.9357109382
-87.64717865,41.86967171,0,0.7764571,14-55-57-012,1500580557013,0.3201192,-0.023172509,0.5445689,336,-0.010405858,-0.011700164,0.0118342005,-3.549080485,0.6759229374,167.1029412898
-87.64717865,41.86967171,0,0.7764571,14-55-57-013,1500580557014,0.3201192,-0.023172509,0.5445689,336,-0.010405858,-0.011700164,0.0118342005,-3.549080485,0.6759229374,167.1029412898
-87.64717865,41.86967171,0,0.7764571,14-55-57-113,1500580557113,0.3458638,-0.045240436,0.48627132,338,-0.009873226,-0.0026454164,0.011301569,-3.5996949615,0.5670501489,167.2306521669
-87.64717865,41.86967171,0,0.7764571,14-55-57-114,1500580557115,0.3458638,-0.045240436,0.48627132,338,-0.009873226,-0.0026454164,0.011301569,-3.5996949615,0.5670501489,167.2306521669
-87.64717865,41.86967171,0,0.7764571,14-55-57-222,1500580557222,0.2511665,0.018260607,0.43941572,338,-0.015199549,-0.006906474,-0.027580583,-3.6699861458,0.5810350146,167.2020336743
-87.64717865,41.86967171,0,0.7764571,14-55-57-223,1500580557224,0.2511665,0.018260607,0.43941572,338,-0.029580617,0.0010830092,-0.022254262,-3.6699861458,0.5810350146,167.2020336743
-87.64717873,41.86967132,0,0.8060078,14-55-57-312,1500580557313,0.34824842,-0.08137274,0.6158718,337,-0.033841677,0.014398815,0.04112897,-3.5754789527,0.6274084239,167.364824403
-87.64717873,41.86967132,0,0.8060078,14-55-57-314,1500580557318,0.34824842,-0.08137274,0.6158718,337,-0.033841677,0.014398815,0.04112897,-3.5754789527,0.6274084239,167.364824403
-87.64717873,41.86967132,0,0.8060078,14-55-57-412,1500580557413,0.35683534,0.026447557,0.44543895,339,-0.007742697,1.7744722E-05,-0.0137321465,-3.5390106517,0.5083925911,167.4276758037
-87.64717873,41.86967132,0,0.8060078,14-55-57-415,1500580557415,0.35683534,0.026447557,0.44543895,339,-0.007742697,1.7744722E-05,-0.0137321465,-3.5390106517,0.5083925911,167.4276758037
-87.64717873,41.86967132,0,0.8060078,14-55-57-513,1500580557514,0.12968409,0.049113017,0.32385978,337,0.008768902,-0.012232796,-0.012134249,-3.6382876647,0.6642610297,167.3336104385
-87.64717873,41.86967132,0,0.8060078,14-55-57-517,1500580557518,0.12968409,0.049113017,0.32385978,337,0.008768902,-0.012232796,-0.012134249,-3.6382876647,0.6642610297,167.3336104385
-87.64717873,41.86967132,0,0.8060078,14-55-57-612,1500580557613,0.19845214,0.07380138,0.5782788,336,-0.0045469035,-0.019157017,0.03580265,-3.6049166411,0.7221267659,167.2494078664
-87.64717873,41.86967132,0,0.8060078,14-55-57-615,1500580557617,0.2764589,0.10088168,0.66474664,336,-0.0045469035,-0.019157017,0.03580265,-3.56712307,0.7059280118,167.217224015
-87.64717873,41.86967132,0,0.8060078,14-55-57-712,1500580557713,0.33391306,0.0008187471,0.4172801,338,-0.008807962,-0.010102267,0.010236304,-3.6505589533,0.5680128854,167.2525634138
-87.64717873,41.86967132,0,0.8060078,14-55-57-719,1500580557720,0.3894375,-0.039086808,0.48816103,339,-0.0013511104,-0.008504371,0.001181556,-3.6637954331,0.5391853784,167.2680952639
-87.64717873,41.86967132,0,0.8060078,14-55-57-812,1500580557813,0.33181566,-0.040883046,0.52714986,339,0.005573109,-0.021287546,-0.003612134,-3.7397142664,0.5579203738,167.1914468811
-87.64717873,41.86967132,0,0.8060078,14-55-57-816,1500580557817,0.30294022,-0.0002500109,0.5157902,338,0.005573109,-0.021287546,-0.003612134,-3.761460308,0.5793411811,167.1566129163
-87.64717873,41.86967132,0,0.8060078,14-55-57-916,1500580557916,0.27304825,0.010285324,0.38931978,339,0.006105741,0.0026809059,-0.005742663,-3.8573049375,0.5643547322,167.1106320828
-87.64717873,41.86967132,0,0.8060078,14-55-57-914,1500580557915,0.27304825,0.010285324,0.38931978,339,0.006105741,0.0026809059,-0.005742663,-3.8686964124,0.5595511882,167.100168233
-87.64717873,41.86967132,0,0.8060078,14-55-58-021,1500580558022,0.34115666,-0.021445671,0.52961105,339,0.017291019,-0.009569635,0.0118342005,-3.8466464273,0.5537791981,167.0827922318
-87.64717873,41.86967132,0,0.8060078,14-55-58-029,1500580558030,0.34115666,-0.021445671,0.52961105,339,0.017291019,-0.009569635,0.0118342005,-3.8466464273,0.5537791981,167.0827922318
-87.64717873,41.86967132,0,0.8060078,14-55-58-113,1500580558114,0.35813662,-0.033424515,0.46726942,339,-0.009873226,-0.015428591,-0.023852158,-3.8224713997,0.5289820362,167.0933926854
-87.64717873,41.86967132,0,0.8060078,14-55-58-118,1500580558119,0.4676553,-0.07507741,0.6988911,339,-0.009873226,-0.015428591,-0.023852158,-3.8027120893,0.5347903117,167.1631152564
-87.64717873,41.86967132,0,0.8060078,14-55-58-220,1500580558222,0.2544617,0.026972735,0.47168556,338,-0.02318903,-0.005308577,-0.0020142372,-3.87874234,0.6519719186,167.1473785006
-87.64717873,41.86967132,0,0.8060078,14-55-58-223,1500580558224,0.2544617,0.026972735,0.47168556,338,-0.02318903,-0.005308577,-0.0020142372,-3.87874234,0.6519719186,167.1473785006
-87.64717881,41.8696711,0,0.82152116,14-55-58-319,1500580558320,0.22391817,0.054647002,0.48695213,338,-0.021058502,-0.021820176,0.0022468206,-3.9761340074,0.6787808913,167.2035226555
-87.64717881,41.8696711,0,0.82152116,14-55-58-313,1500580558326,0.22391817,0.054647002,0.48695213,338,-0.021058502,-0.021820176,0.0022468206,-3.9761340074,0.6787808913,167.2035226555
-87.64717881,41.8696711,0,0.82152116,14-55-58-414,1500580558414,0.30200028,-0.0062992373,0.3757452,338,0.0029099474,-0.0063738422,-0.0078731915,-4.0267529662,0.6715388097,167.2195872605
-87.64717881,41.8696711,0,0.82152116,14-55-58-425,1500580558426,0.34277734,-0.003285823,0.52536064,338,0.0029099474,-0.0063738422,-0.0078731915,-4.0203786922,0.6744779789,167.2178797132
-87.64717881,41.8696711,0,0.82152116,14-55-58-513,1500580558514,0.3404581,0.009386744,0.553009,337,-0.005079536,0.0021482736,0.021954214,-3.9958356881,0.6981597388,167.198085825
-87.64717881,41.8696711,0,0.82152116,14-55-58-523,1500580558524,0.3067793,0.018968936,0.5059254,337,-0.005079536,0.0021482736,0.021954214,-3.9958356881,0.6981597388,167.198085825
-87.64717881,41.8696711,0,0.82152116,14-55-58-614,1500580558615,0.26669562,-0.010699309,0.44366428,338,0.0140952235,0.010670389,-0.0030795017,-4.0332237167,0.6301607767,167.2727944341
-87.64717881,41.8696711,0,0.82152116,14-55-58-624,1500580558625,0.338592,-0.040319085,0.5171929,338,0.0140952235,0.010670389,-0.0030795017,-4.0156641541,0.6256296399,167.2852253784
-87.64717881,41.8696711,0,0.82152116,14-55-58-713,1500580558714,0.23583038,0.01744341,0.4889172,338,-0.016797444,0.027181987,-0.0004163406,-3.9302902046,0.6455127474,167.1823354087
-87.64717881,41.8696711,0,0.82152116,14-55-58-720,1500580558721,0.27144912,9.275726E-07,0.50784147,338,-0.016797444,0.027181987,-0.0004163406,-3.8966037116,0.6439702986,167.1608339732
-87.64717881,41.8696711,0,0.82152116,14-55-58-814,1500580558815,0.39718226,0.006336172,0.5049451,337,-0.008807962,0.02771462,-0.0025468695,-3.7320174969,0.6470607458,167.1855865788
-87.64717881,41.8696711,0,0.82152116,14-55-58-820,1500580558821,0.39718226,0.006336172,0.5049451,337,-0.008807962,0.02771462,-0.0025468695,-3.7320174969,0.6470607458,167.1855865788
-87.64717881,41.8696711,0,0.82152116,14-55-58-914,1500580558915,0.3572457,-0.012912164,0.637743,337,0.0050404766,-0.0005148875,0.011301569,-3.6170543141,0.6249560125,167.2438071113
-87.64717881,41.8696711,0,0.82152116,14-55-58-921,1500580558922,0.3572457,-0.012912164,0.637743,337,0.0050404766,-0.0005148875,0.011301569,-3.6170543141,0.6249560125,167.2438071113
-87.64717881,41.8696711,0,0.82152116,14-55-59-021,1500580559022,0.2594641,0.06544567,0.533041,338,0.0071710055,0.0058766995,0.019291053,-3.5914449467,0.5653647998,167.225816393
-87.64717881,41.8696711,0,0.82152116,14-55-59-015,1500580559023,0.23607726,0.067206234,0.483612,338,0.0071710055,0.0058766995,0.019291053,-3.5846220146,0.5530946317,167.1993562401
-87.64717881,41.8696711,0,0.82152116,14-55-59-118,1500580559119,0.40494144,-0.04644228,0.65131646,340,0.0034425796,0.023986194,0.005975246,-3.4759934054,0.4423865501,167.2629726221
-87.64717881,41.8696711,0,0.82152116,14-55-59-124,1500580559126,0.40494144,-0.04644228,0.65131646,340,0.0034425796,0.023986194,0.005975246,-3.4759934054,0.4423865501,167.2629726221
-87.64717881,41.8696711,0,0.82152116,14-55-59-215,1500580559216,0.46770936,-0.10086327,0.7499714,340,0.042324733,-0.05164758,-0.018525837,-3.4345510192,0.4180894594,167.226212544
-87.64717881,41.8696711,0,0.82152116,14-55-59-224,1500580559225,0.46770936,-0.10086327,0.7499714,340,0.042324733,-0.05164758,-0.018525837,-3.4441920446,0.4170877962,167.1980175231
-87.64717889,41.86967102,0,0.82481647,14-55-59-316,1500580559317,0.2681773,-0.086379975,0.5555848,339,0.017291019,-0.021287546,-0.011601618,-3.6452134765,0.5096529211,167.1034740446
-87.64717889,41.86967102,0,0.82481647,14-55-59-324,1500580559328,0.2681773,-0.086379975,0.5555848,339,0.017291019,-0.021287546,-0.011601618,-3.6452134765,0.5096529211,167.1034740446
-87.64717889,41.86967102,0,0.82481647,14-55-59-415,1500580559416,0.16315097,0.0074927458,0.52577925,338,-0.026384825,0.01546408,0.0118342005,-3.7071918937,0.5609987614,167.0633944945
-87.64717889,41.86967102,0,0.82481647,14-55-59-426,1500580559429,0.16315097,0.0074927458,0.52577925,338,-0.026384825,0.01546408,0.0118342005,-3.7071918937,0.5609987614,167.0633944945
-87.64717889,41.86967102,0,0.82481647,14-55-59-519,1500580559520,0.42241096,-0.044147104,0.76244736,339,0.018888915,-0.012765429,-0.019058468,-3.5960954518,0.5421409293,167.2105714108
-87.64717889,41.86967102,0,0.82481647,14-55-59-527,1500580559529,0.42241096,-0.044147104,0.76244736,339,0.018888915,-0.012765429,-0.019058468,-3.5960954518,0.5421409293,167.2105714108
-87.64717889,41.86967102,0,0.82481647,14-55-59-620,1500580559621,0.27267334,-0.0012843162,0.4606728,338,-0.033841677,-0.016493855,0.022486845,-3.6607803314,0.5767495512,167.1324340467
-87.64717889,41.86967102,0,0.82481647,14-55-59-629,1500580559630,0.27267334,-0.0012843162,0.4606728,338,-0.033841677,-0.016493855,0.022486845,-3.6607803314,0.5767495512,167.1324340467
-87.64717889,41.86967102,0,0.82481647,14-55-59-718,1500580559719,0.29620305,-0.07735936,0.5719806,340,0.0077036372,-0.005308577,0.011301569,-3.6723438417,0.4839673543,167.176748314
-87.64717889,41.86967102,0,0.82481647,14-55-59-727,1500580559727,0.29620305,-0.07735936,0.5719806,340,0.0077036372,-0.005308577,0.011301569,-3.6723438417,0.4839673543,167.176748314
-87.64717889,41.86967102,0,0.82481647,14-55-59-815,1500580559817,0.31377667,-0.019990327,0.46062016,341,-0.049820643,0.014398815,0.013964729,-3.7164493614,0.4203244788,167.1410810661
-87.64717889,41.86967102,0,0.82481647,14-55-59-834,1500580559835,0.2780424,-0.025039382,0.40804294,341,-0.038102735,0.009072493,0.018225787,-3.7346219334,0.4053684989,167.156530954
-87.64717889,41.86967102,0,0.82481647,14-55-59-915,1500580559916,0.20339757,-0.016318947,0.72375315,342,0.03433525,0.003213538,0.026215272,-3.6907755341,0.3689319476,167.2577543575
-87.64717889,41.86967102,0,0.82481647,14-55-59-929,1500580559929,0.07581844,-0.012396012,0.5258628,341,0.03433525,0.003213538,0.026215272,-3.6913232299,0.3718034819,167.1989327684
-87.64717889,41.86967102,0,0.82481647,14-56-00-017,1500580560018,0.4759294,-0.052400395,0.41329902,344,-0.068462774,1.7744722E-05,0.010236304,-3.6025696173,0.2082204113,167.1198255174
-87.64717889,41.86967102,0,0.82481647,14-56-00-025,1500580560026,0.4759294,-0.052400395,0.41329902,344,-0.068462774,1.7744722E-05,0.010236304,-3.6025696173,0.2082204113,167.1198255174
-87.64717889,41.86967102,0,0.82481647,14-56-00-117,1500580560120,0.5205585,-0.004790245,0.78778523,344,0.025280502,-0.028744396,-0.030776378,-3.5612548703,0.2190459276,167.2739282455
-87.64717889,41.86967102,0,0.82481647,14-56-00-126,1500580560129,0.4753332,-0.002917284,0.72332126,343,0.025280502,-0.028744396,-0.030776378,-3.5645158587,0.256063125,167.2046974481
-87.64717889,41.86967102,0,0.82481647,14-56-00-219,1500580560219,0.25749964,-0.0022406918,0.551017,341,0.02954156,-0.030874927,-0.022786895,-3.7640749898,0.3778682096,167.0958652138
-87.64717889,41.86967102,0,0.82481647,14-56-00-225,1500580560226,0.25749964,-0.0022406918,0.551017,341,0.02954156,-0.030874927,-0.022786895,-3.7640749898,0.3778682096,167.0958652138
-87.64717893,41.86967101,0,0.8237947,14-56-00-317,1500580560321,0.24561018,-0.023820234,0.38873318,339,-0.0061448,0.00853986,-0.025450055,-3.8803512765,0.5361893799,166.9870329796
-87.64717893,41.86967101,0,0.8237947,14-56-00-326,1500580560326,0.24561018,-0.023820234,0.38873318,339,-0.0061448,0.00853986,-0.025450055,-3.8803512765,0.5361893799,166.9870329796
-87.64717893,41.86967101,0,0.8237947,14-56-00-417,1500580560418,0.33710045,-0.025973825,0.6175243,337,0.0034425796,0.003213538,-0.015330043,-3.8352895303,0.6591439908,166.8933501049
-87.64717893,41.86967101,0,0.8237947,14-56-00-426,1500580560429,0.29782146,0.010377766,0.549681,337,0.0034425796,0.003213538,-0.015330043,-3.8241827889,0.6862862554,166.8404024785
-87.64717893,41.86967101,0,0.8237947,14-56-00-518,1500580560519,0.30806375,0.0449659,0.4117014,336,-0.040233262,-0.016493855,0.072554275,-3.7676685231,0.7039916532,166.8411674597
-87.64717893,41.86967101,0,0.8237947,14-56-00-526,1500580560527,0.30806375,0.0449659,0.4117014,336,-0.040233262,-0.016493855,0.072554275,-3.7676685231,0.7039916532,166.8411674597
-87.64717893,41.86967101,0,0.8237947,14-56-00-617,1500580560619,0.15465292,0.028058741,0.41908708,340,-0.09722491,-0.027679132,0.03420475,-3.885923857,0.4788234749,167.0933380438
-87.64717893,41.86967101,0,0.8237947,14-56-00-626,1500580560628,0.15465292,0.028058741,0.41908708,340,-0.09722491,-0.027679132,0.03420475,-3.885923857,0.4788234749,167.0933380438
-87.64717893,41.86967101,0,0.8237947,14-56-00-718,1500580560719,0.14739856,-0.039375912,0.50992286,343,-0.021591134,0.01812724,-0.0046773986,-3.9993207921,0.3324769335,167.5516164164
-87.64717893,41.86967101,0,0.8237947,14-56-00-730,1500580560731,0.14739856,-0.039375912,0.50992286,343,-0.021591134,0.01812724,-0.0046773986,-3.9993207921,0.3324769335,167.5516164164
-87.64717893,41.86967101,0,0.8237947,14-56-00-817,1500580560818,0.26200023,-0.013376302,0.56060034,340,0.017291019,0.0010830092,0.0038447173,-3.7654645064,0.4845694249,167.565864191
-87.64717893,41.86967101,0,0.8237947,14-56-00-827,1500580560828,0.26200023,-0.013376302,0.56060034,340,0.017291019,0.0010830092,0.0038447173,-3.7654645064,0.4845694249,167.565864191
-87.64717893,41.86967101,0,0.8237947,14-56-00-919,1500580560920,0.5259065,-0.023433143,0.64422476,341,-0.0034816393,-0.01968965,-0.0078731915,-3.789511468,0.4459595661,167.4979174691
-87.64717893,41.86967101,0,0.8237947,14-56-00-929,1500580560930,0.5259065,-0.023433143,0.64422476,341,-0.0034816393,-0.01968965,-0.0078731915,-3.789511468,0.4459595661,167.4979174691
-87.64717893,41.86967101,0,0.8237947,14-56-01-019,1500580561020,0.24855028,-0.067628905,0.4856177,340,-0.007742697,-0.031407557,-0.011601618,-4.0075063469,0.5001609325,167.4440682577
-87.64717893,41.86967101,0,0.8237947,14-56-01-032,1500580561035,0.24855028,-0.067628905,0.4856177,340,-0.012536387,-0.039929673,-0.009471089,-4.0075063469,0.5001609325,167.4440682577
-87.64717893,41.86967101,0,0.8237947,14-56-01-120,1500580561123,0.3707756,-0.107158914,0.6730584,340,0.0077036372,-0.008504371,-0.032374274,-4.1904529638,0.5338686631,167.5579548319
-87.64717893,41.86967101,0,0.8237947,14-56-01-130,1500580561131,0.3707756,-0.107158914,0.6730584,340,0.0077036372,-0.008504371,-0.032374274,-4.1904529638,0.5338686631,167.5579548319
-87.64717893,41.86967101,0,0.8237947,14-56-01-225,1500580561227,0.2131467,-0.012204761,0.38712066,338,-0.012536387,0.017061975,-0.017460572,-4.2533965721,0.7428142883,167.4734380712
-87.64717893,41.86967101,0,0.8237947,14-56-01-232,1500580561235,0.2131467,-0.012204761,0.38712066,338,-0.026384825,0.00853986,-0.015330043,-4.2533965721,0.7428142883,167.4734380712
-87.64717895,41.869671,0,0.8237427,14-56-01-321,1500580561322,0.45393568,-0.030657765,0.6381428,337,0.017823651,0.008007228,-0.03290691,-4.2101085407,0.8192144365,167.5497586049
-87.64717895,41.869671,0,0.8237427,14-56-01-330,1500580561331,0.45393568,-0.030657765,0.6381428,337,0.017823651,0.008007228,-0.03290691,-4.2101085407,0.8192144365,167.5497586049
-87.64717895,41.869671,0,0.8237427,14-56-01-424,1500580561426,0.10728323,0.005467792,0.5354108,334,0.010366798,0.011203022,0.0049099815,-4.206362182,1.0061832344,167.4405848612
-87.64717895,41.869671,0,0.8237427,14-56-01-431,1500580561431,0.10728323,0.005467792,0.5354108,334,0.010366798,0.011203022,0.0049099815,-4.206362182,1.0061832344,167.4405848612
-87.64717895,41.869671,0,0.8237427,14-56-01-525,1500580561525,0.26840192,-0.09916474,0.46623623,337,-0.108410195,0.004811435,0.090663776,-4.1541120886,0.8065934209,167.5131761117
-87.64717895,41.869671,0,0.8237427,14-56-01-530,1500580561531,0.26840192,-0.09916474,0.46623623,337,-0.108410195,0.004811435,0.090663776,-4.1541120886,0.8065934209,167.5131761117
-87.64717895,41.869671,0,0.8237427,14-56-01-627,1500580561628,0.41493037,-0.093026206,0.52321565,341,-0.016264811,-0.0010475197,-0.024384791,-4.0815524277,0.5040482706,167.8871289688
-87.64717895,41.869671,0,0.8237427,14-56-01-630,1500580561631,0.41493037,-0.093026206,0.52321565,341,-0.016264811,-0.0010475197,-0.024384791,-4.0815524277,0.5040482706,167.8871289688
-87.64717895,41.869671,0,0.8237427,14-56-01-726,1500580561727,0.32009503,0.011818501,0.501165,338,-0.002949007,-0.007439106,-0.025450055,-4.0907795864,0.6825473671,167.8185948507
-87.64717895,41.869671,0,0.8237427,14-56-01-731,1500580561732,0.32009503,0.011818501,0.501165,338,-0.002949007,-0.007439106,-0.025450055,-4.0907795864,0.6825473671,167.8185948507
-87.64717895,41.869671,0,0.8237427,14-56-01-826,1500580561827,0.2956344,-0.12932485,0.6109132,338,-0.011471123,-0.014895958,0.009703672,-4.2028557336,0.7683081829,167.9540101812
-87.64717895,41.869671,0,0.8237427,14-56-01-831,1500580561832,0.2956344,-0.12932485,0.6109132,338,-0.011471123,-0.014895958,0.009703672,-4.2028557336,0.7683081829,167.9540101812
-87.64717895,41.869671,0,0.8237427,14-56-01-927,1500580561928,0.44245768,-0.122140355,0.5714383,338,0.025813134,0.004811435,-0.05740799,-4.2142826401,0.7509068886,167.9261156886
-87.64717895,41.869671,0,0.8237427,14-56-01-932,1500580561932,0.44245768,-0.122140355,0.5714383,338,0.025813134,0.004811435,-0.05740799,-4.2142826401,0.7509068886,167.9261156886
-87.64717895,41.869671,0,0.8237427,14-56-02-028,1500580562028,0.3043097,0.04788564,0.6340901,333,0.0140952235,-0.0037106809,-0.035037436,-4.1627270916,1.0782648888,167.8009183211
-87.64717895,41.869671,0,0.8237427,14-56-02-031,1500580562032,0.3043097,0.04788564,0.6340901,333,0.0140952235,-0.0037106809,-0.035037436,-4.1627270916,1.0782648888,167.8009183211
-87.64717895,41.869671,0,0.8237427,14-56-02-129,1500580562130,0.28922707,0.073134854,0.44441247,332,0.0007794186,-0.0037106809,0.020888949,-4.2001778725,1.1781796707,167.6793955954
-87.64717895,41.869671,0,0.8237427,14-56-02-132,1500580562132,0.28922707,0.073134854,0.44441247,332,0.0007794186,-0.0037106809,0.020888949,-4.2001778725,1.1781796707,167.6793955954
-87.64717896,41.869671,0,0.82326436,14-56-02-248,1500580562249,0.2369789,-0.030709103,0.6178976,332,0.006105741,0.024518827,0.013432098,-4.0390370614,1.1485244835,167.6978507665
-87.64717896,41.869671,0,0.82326436,14-56-02-249,1500580562254,0.2369789,-0.030709103,0.6178976,332,0.006105741,0.024518827,0.013432098,-4.0390370614,1.1485244835,167.6978507665
-87.64717896,41.869671,0,0.82326436,14-56-02-328,1500580562328,0.32741216,-0.03908544,0.5192664,332,-0.0226564,0.07352099,0.0022468206,-3.8065796839,1.1028221936,167.675447746
-87.64717896,41.869671,0,0.82326436,14-56-02-333,1500580562333,0.32741216,-0.03908544,0.5192664,332,-0.0226564,0.07352099,0.0022468206,-3.8065796839,1.1028221936,167.675447746
-87.64717896,41.869671,0,0.82326436,14-56-02-429,1500580562430,0.38440248,0.0022809033,0.74687123,330,0.026878398,-0.035135984,0.019823683,-3.4737490479,1.0769721688,167.7250349194
-87.64717896,41.869671,0,0.82326436,14-56-02-432,1500580562433,0.38440248,0.0022809033,0.74687123,330,0.026878398,-0.035135984,0.019823683,-3.4737490479,1.0769721688,167.7250349194
-87.64717896,41.869671,0,0.82326436,14-56-02-530,1500580562535,0.2639539,-0.01813716,0.48140794,333,-0.010938491,-0.0271465,0.02355211,-3.6809298164,0.9834026326,167.5963678158
-87.64717896,41.869671,0,0.82326436,14-56-02-533,1500580562536,0.2639539,-0.01813716,0.48140794,333,-0.010938491,-0.0271465,0.02355211,-3.6809298164,0.9834026326,167.5963678158
-87.64717896,41.869671,0,0.82326436,14-56-02-628,1500580562629,0.3970903,-0.09017917,0.78333604,335,-0.0093405945,-0.0138306925,0.032606855,-3.7302343907,0.8326053959,167.7069895596
-87.64717896,41.869671,0,0.82326436,14-56-02-633,1500580562634,0.3970903,-0.09017917,0.78333604,335,-0.0093405945,-0.0138306925,0.032606855,-3.7302343907,0.8326053959,167.7069895596
-87.64717896,41.869671,0,0.82326436,14-56-02-729,1500580562730,0.27664134,-0.034359008,0.58908737,338,0.0029099474,-0.04152757,0.042726867,-3.7827209793,0.6683555147,167.7372472977
-87.64717896,41.869671,0,0.82326436,14-56-02-733,1500580562733,0.27664134,-0.034359008,0.58908737,338,0.0029099474,-0.04152757,0.042726867,-3.7827209793,0.6683555147,167.7372472977
-87.64717896,41.869671,0,0.82326436,14-56-02-829,1500580562830,0.24465784,0.027515572,0.40845707,340,-0.030645883,0.01546408,0.0006489238,-3.9722587288,0.5130732984,167.6481679705
-87.64717896,41.869671,0,0.82326436,14-56-02-833,1500580562838,0.22932921,0.014360854,0.43331522,340,-0.03490694,0.010670389,0.0054426137,-3.9722587288,0.5130732984,167.6481679705
-87.64717896,41.869671,0,0.82326436,14-56-02-930,1500580562930,0.35777256,-0.09207401,0.7941739,341,-0.03970063,-0.022885442,0.03100896,-3.8335576505,0.4650630983,167.7864929616
-87.64717896,41.869671,0,0.82326436,14-56-02-933,1500580562934,0.35777256,-0.09207401,0.7941739,341,-0.03970063,-0.022885442,0.03100896,-3.8335576505,0.4650630983,167.7864929616
-87.64717896,41.869671,0,0.82326436,14-56-03-030,1500580563030,0.42430443,-0.16921324,0.5836308,342,0.040726837,-0.09958448,-0.010536352,-3.9995910114,0.4111679698,167.8867464782
-87.64717896,41.869671,0,0.82326436,14-56-03-034,1500580563037,0.42430443,-0.16921324,0.5836308,342,0.040726837,-0.09958448,-0.010536352,-3.9995910114,0.4111679698,167.8867464782
-87.64717896,41.869671,0,0.82326436,14-56-03-130,1500580563130,0.27758875,-0.02480955,0.45642167,343,-0.048222747,-0.042592835,0.03367212,-4.409536831,0.3543974385,167.7535304686
-87.64717896,41.869671,0,0.82326436,14-56-03-135,1500580563136,0.27758875,-0.02480955,0.45642167,343,-0.048222747,-0.042592835,0.03367212,-4.409536831,0.3543974385,167.7535304686
-87.64717896,41.869671,0,0.82326436,14-56-03-231,1500580563232,0.35438314,-0.05884401,0.68999064,345,0.006105741,-0.009569635,-0.027047953,-4.5251476011,0.2119907691,167.9150234614
-87.64717898,41.86967101,0,0.8214005,14-56-03-246,1500580563249,0.33322537,-0.08415966,0.6730908,345,-0.0013511104,0.00853986,-0.022254262,-4.528169106,0.2273444473,167.9073873099
-87.64717898,41.86967101,0,0.8214005,14-56-03-331,1500580563331,0.41893545,-0.0569445,0.65884846,344,0.024215236,-0.08733394,0.021954214,-4.5289396367,0.2751040649,167.8401099466
-87.64717898,41.86967101,0,0.8214005,14-56-03-336,1500580563337,0.41893545,-0.0569445,0.65884846,344,0.024215236,-0.08733394,0.021954214,-4.5289396367,0.2751040649,167.8401099466
-87.64717898,41.86967101,0,0.8214005,14-56-03-432,1500580563432,0.16027646,-0.06513964,0.3249912,346,-0.09349649,0.012268286,0.03846581,-5.1224826487,0.1866978715,167.9883523723
-87.64717898,41.86967101,0,0.8214005,14-56-03-435,1500580563437,0.16027646,-0.06513964,0.3249912,346,-0.09349649,0.012268286,0.03846581,-5.1224826487,0.1866978715,167.9883523723
-87.64717898,41.86967101,0,0.8214005,14-56-03-530,1500580563531,0.36278722,-0.06088907,0.65453905,348,0.018356282,-0.019157017,0.013432098,-5.1446402093,0.0521725567,168.1253932878
-87.64717898,41.86967101,0,0.8214005,14-56-03-536,1500580563537,0.36278722,-0.06088907,0.65453905,348,0.018356282,-0.019157017,0.013432098,-5.1446402093,0.0521725567,168.1253932878
-87.64717898,41.86967101,0,0.8214005,14-56-03-631,1500580563632,0.2549875,-0.080658324,0.40687215,348,-0.021591134,0.0058766995,0.0001162916,-5.2495835046,-0.0282040389,168.0894118513
-87.64717898,41.86967101,0,0.8214005,14-56-03-636,1500580563637,0.2549875,-0.080658324,0.40687215,348,-0.021591134,0.0058766995,0.0001162916,-5.2495835046,-0.0282040389,168.0894118513
-87.64717898,41.86967101,0,0.8214005,14-56-03-732,1500580563733,0.2994224,-0.14755656,0.4889993,349,-0.0737891,0.04955254,0.018225787,-5.0749377019,-0.0799843233,168.3820308157
-87.64717898,41.86967101,0,0.8214005,14-56-03-735,1500580563739,0.2994224,-0.14755656,0.4889993,349,-0.0737891,0.04955254,0.018225787,-5.0749377019,-0.0799843233,168.3820308157
-87.64717898,41.86967101,0,0.8214005,14-56-03-831,1500580563832,0.27914363,0.048583638,0.52904093,349,0.0066383732,-0.015961222,0.0054426137,-4.9126302091,-0.0632014079,168.4149386671
-87.64717898,41.86967101,0,0.8214005,14-56-03-836,1500580563837,0.27914363,0.048583638,0.52904093,349,0.0066383732,-0.015961222,0.0054426137,-4.9126302091,-0.0632014079,168.4149386671
-87.64717898,41.86967101,0,0.8214005,14-56-03-933,1500580563933,0.58351004,-0.17390709,0.83536184,349,0.051912114,0.036236737,-0.10641015,-4.9348697319,-0.0445100016,168.3495874171
-87.64717898,41.86967101,0,0.8214005,14-56-03-936,1500580563937,0.58351004,-0.17390709,0.83536184,349,0.051912114,0.036236737,-0.10641015,-4.9348697319,-0.0445100016,168.3495874171
-87.64717898,41.86967101,0,0.8214005,14-56-04-031,1500580564032,0.26367655,-0.13059266,0.47523126,345,0.011432063,-0.017026488,-0.059005886,-4.9672149465,0.302329359,168.0469280746
-87.64717898,41.86967101,0,0.8214005,14-56-04-036,1500580564037,0.26367655,-0.13059266,0.47523126,345,0.011432063,-0.017026488,-0.059005886,-4.9672149465,0.302329359,168.0469280746
-87.64717898,41.86967101,0,0.8214005,14-56-04-133,1500580564134,0.20776547,0.00902403,0.31978837,341,-0.07698489,0.037834633,-0.028645849,-4.9794734285,0.5824035604,167.933423991
-87.64717898,41.86967101,0,0.8214005,14-56-04-138,1500580564140,0.20776547,0.00902403,0.31978837,341,-0.07698489,0.037834633,-0.028645849,-4.9794734285,0.5824035604,167.933423991
-87.64717898,41.86967101,0,0.8214005,14-56-04-234,1500580564235,0.33014593,-0.18313095,0.21050054,341,-0.027982721,0.060205184,0.034737386,-4.7042010102,0.5587238282,167.9268806698
-87.64717898,41.86967101,0,0.8214005,14-56-04-237,1500580564238,0.33014593,-0.18313095,0.21050054,341,-0.027982721,0.060205184,0.034737386,-4.7042010102,0.5587238282,167.9268806698
-87.64717901,41.86967103,0,0.81815124,14-56-04-334,1500580564334,0.6572215,-0.04269889,0.9647222,341,0.066825815,0.0042788023,-0.11173648,-4.401860979,0.5783733753,168.0823494357
-87.64717901,41.86967103,0,0.81815124,14-56-04-338,1500580564340,0.6572215,-0.04269889,0.9647222,341,0.066825815,0.0042788023,-0.11173648,-4.401860979,0.5783733753,168.0823494357
-87.64717901,41.86967103,0,0.81815124,14-56-04-433,1500580564434,0.020329373,0.05059862,0.8532185,334,0.11316481,-0.014895958,0.0038447173,-4.2576637328,1.0744884345,167.7032602763
-87.64717901,41.86967103,0,0.81815124,14-56-04-439,1500580564440,0.020329373,0.05059862,0.8532185,334,0.12914379,-0.023418074,0.013964729,-4.2576637328,1.0744884345,167.7032602763
-87.64717901,41.86967103,0,0.81815124,14-56-04-534,1500580564538,0.37123653,-0.23162206,0.102728985,335,-0.02318903,0.0042788023,0.029411064,-4.3894650395,0.9240111495,167.155410803
-87.64717901,41.86967103,0,0.81815124,14-56-04-539,1500580564540,0.37123653,-0.23162206,0.102728985,336,-0.04396169,0.012800918,0.026215272,-4.3894650395,0.9240111495,167.155410803
-87.64717901,41.86967103,0,0.81815124,14-56-04-638,1500580564639,0.3819805,0.025813581,0.609194,338,-0.0737891,-0.0005148875,0.015562626,-4.3584273792,0.7558661395,167.3949318768
-87.64717901,41.86967103,0,0.81815124,14-56-04-645,1500580564645,0.3819805,0.025813581,0.609194,338,-0.0018837426,0.021323033,-0.008405823,-4.3584273792,0.7558661395,167.3949318768
-87.64717901,41.86967103,0,0.81815124,14-56-04-738,1500580564739,0.20094773,-0.02125348,0.4540839,338,0.016758386,-0.0010475197,0.03420475,-4.272098057,0.7140067916,167.3959564052
-87.64717901,41.86967103,0,0.81815124,14-56-04-740,1500580564741,0.20094773,-0.02125348,0.4540839,338,0.016758386,-0.0010475197,0.03420475,-4.272098057,0.7140067916,167.3959564052
-87.64717901,41.86967103,0,0.81815124,14-56-04-834,1500580564840,0.44379884,-0.15333101,0.3186687,341,0.019421548,0.021855665,0.007573142,-4.2897626337,0.5011787907,167.1703962381
-87.64717901,41.86967103,0,0.81815124,14-56-04-842,1500580564842,0.34956995,-0.12244898,0.12538539,341,-0.032243777,0.018659871,0.013964729,-4.2770435408,0.4858361048,167.0929555532
-87.64717901,41.86967103,0,0.81815124,14-56-04-935,1500580564935,0.36194494,0.009806881,0.77117586,341,-0.0045469035,-0.0026454164,0.0049099815,-4.1598750607,0.4237175887,167.2704994905
-87.64717901,41.86967103,0,0.81815124,14-56-04-943,1500580564943,0.409875,0.028626502,0.928182,342,0.055640537,1.7744722E-05,-0.020123733,-4.1240114449,0.4115994724,167.3263431172
-87.64717901,41.86967103,0,0.81815124,14-56-05-034,1500580565037,0.21599959,-0.017860975,0.451601,341,0.0007794186,-0.012765429,0.03580265,-4.0967982637,0.4068980611,167.1072716297
-87.64717901,41.86967103,0,0.81815124,14-56-05-042,1500580565043,0.43750113,-0.15706195,0.6029906,342,0.028476294,-0.012232796,0.0006489238,-4.1105931114,0.3582452629,167.0843631753
-87.64717901,41.86967103,0,0.81815124,14-56-05-134,1500580565136,0.24374636,-0.14017187,0.48699215,341,0.057771068,-0.0026454164,-0.04728798,-4.1444563355,0.4397788052,166.8150761371
-87.64717901,41.86967103,0,0.81815124,14-56-05-143,1500580565144,0.06363745,-0.043663867,0.27054036,340,0.006105741,-0.007439106,-0.022254262,-4.148743133,0.5134165687,166.6982662419
-87.64717905,41.86967104,0,0.8153374,14-56-05-252,1500580565253,0.24861498,0.078701615,0.4792042,338,-0.008807962,0.029845148,-0.0068079275,-4.1242684308,0.6287066935,166.6169186889
-87.64717905,41.86967104,0,0.8153374,14-56-05-253,1500580565254,0.24861498,0.078701615,0.4792042,338,-0.024254296,0.030910414,-0.0004163406,-4.0917242869,0.6454057589,166.6069192919
-87.64717905,41.86967104,0,0.8153374,14-56-05-335,1500580565336,0.49807754,-0.0555233,0.97868323,338,0.0865332,0.006409331,-0.010536352,-3.9776643967,0.6073514133,166.736255754
-87.64717905,41.86967104,0,0.8153374,14-56-05-344,1500580565344,0.5037026,-0.053826127,0.80930156,338,0.07694583,-0.0042433133,-0.0073405597,-3.9651967401,0.5998705419,166.6803165047
-87.64717905,41.86967104,0,0.8153374,14-56-05-441,1500580565442,0.33479008,-0.022903005,0.42203274,338,-0.070593305,-0.05111495,0.043792132,-4.0137230997,0.5790214962,166.455493998
-87.64717905,41.86967104,0,0.8153374,14-56-05-443,1500580565444,0.31865686,-0.0156198405,0.5926479,339,-0.070593305,-0.05111495,0.043792132,-4.0354456626,0.5508115876,166.5011606428
-87.64717905,41.86967104,0,0.8153374,14-56-05-538,1500580565539,0.47185948,-0.07776038,0.8814046,340,0.11689324,-0.059104435,-0.037700597,-4.250304204,0.4562732318,166.6052527258
-87.64717905,41.86967104,0,0.8153374,14-56-05-544,1500580565545,0.3050507,-0.053890765,0.47077936,340,0.035933148,-0.07668129,-0.003612134,-4.2995981061,0.4919192954,166.4604117342
-87.64717905,41.86967104,0,0.8153374,14-56-05-637,1500580565638,0.42854363,-0.009238841,0.59289056,340,0.04605316,-0.039397042,-0.017993204,-4.5443387251,0.4725588574,166.3179613089
-87.64717905,41.86967104,0,0.8153374,14-56-05-644,1500580565645,0.3895217,-0.032556377,0.629519,340,0.06735844,-0.039929673,-0.014264778,-4.5972154883,0.4679511477,166.308399044
-87.64717905,41.86967104,0,0.8153374,14-56-05-738,1500580565739,-0.09974407,0.18926354,0.22972904,340,-0.039167996,-0.07135498,0.11569749,-4.6173274072,0.4677553667,166.0372951755
-87.64717905,41.86967104,0,0.8153374,14-56-05-744,1500580565745,0.18168262,0.053021353,0.12565733,341,-0.10894282,-0.05803917,0.08800061,-4.6143225509,0.3729358792,166.0040731354
-87.64717905,41.86967104,0,0.8153374,14-56-05-836,1500580565839,0.44859034,-0.010276068,0.6030737,344,-0.06793014,0.07458626,-0.05794062,-4.7240721649,0.1727420075,166.3057216099
-87.64717905,41.86967104,0,0.8153374,14-56-05-844,1500580565845,0.37364474,0.029838052,0.32801476,343,-0.06793014,0.07458626,-0.05794062,-4.7240721649,0.1727420075,166.3057216099
-87.64717905,41.86967104,0,0.8153374,14-56-05-936,1500580565937,-0.15479156,0.3443504,0.80474967,341,0.09345742,0.030910414,0.08214166,-4.3685825898,0.4462879755,166.5186732478
-87.64717905,41.86967104,0,0.8153374,14-56-05-945,1500580565946,-0.027606092,0.2896088,0.5098809,341,0.05084685,-0.0031780486,0.11463222,-4.3384153518,0.3894715805,166.4710258482
-87.64717905,41.86967104,0,0.8153374,14-56-06-036,1500580566038,0.5279036,0.21985272,0.18579307,346,-0.14622708,0.051150437,0.051781617,-4.2228126926,0.0040407814,166.4633213948
-87.64717905,41.86967104,0,0.8153374,14-56-06-045,1500580566045,0.48486602,0.22749755,0.5545882,347,-0.10255124,0.011203022,0.042194236,-4.1587758271,-0.0400723697,166.6243362743
-87.64717905,41.86967104,0,0.8153374,14-56-06-137,1500580566139,0.67854136,-0.27405876,0.7032752,348,0.15311223,0.0016156414,-0.16872813,-4.1681203797,-0.0736141314,166.8550464041
-87.64717905,41.86967104,0,0.8153374,14-56-06-145,1500580566146,0.40314138,-0.15060887,0.24414909,346,0.081739515,0.00853986,-0.15274915,-4.2140397415,0.0569487032,166.6976378645
-87.64717905,41.86967104,0,0.8153374,14-56-06-237,1500580566238,-0.13232687,0.22708744,0.083934665,338,0.040726837,0.09695681,-0.023852158,-4.2413528142,0.6541639291,166.4619007155
-87.64717909,41.86967104,0,0.8134417,14-56-06-246,1500580566247,-0.24328452,0.31814954,0.2638818,336,0.010366798,0.11772946,0.03154159,-4.1735785546,0.7381526842,166.4752332447
-87.64717909,41.86967104,0,0.8134417,14-56-06-339,1500580566340,0.2927254,-0.010921611,0.60298866,337,-0.06153855,0.044226218,0.0006489238,-3.6931468904,0.6037131637,166.6655769565
-87.64717909,41.86967104,0,0.8134417,14-56-06-348,1500580566350,0.4340312,-0.009252432,0.86757755,338,-0.019460605,0.05594413,-0.024917422,-3.6276415342,0.5519230942,166.8391047426
-87.64717909,41.86967104,0,0.8134417,14-56-06-439,1500580566440,0.4834845,-0.15566698,0.020322995,336,-0.023721663,0.006941964,-0.094692245,-3.5742813217,0.6723654761,166.8319467043
-87.64717909,41.86967104,0,0.8134417,14-56-06-447,1500580566448,0.3704559,-0.21720986,-0.064513415,335,-0.033309042,0.00853986,-0.077648014,-3.6028432518,0.771751452,166.7945172677
-87.64717909,41.86967104,0,0.8134417,14-56-06-538,1500580566540,0.18731515,-0.35441607,0.3794363,328,0.11582798,0.14968741,0.010768937,-3.5272095789,1.194842771,166.8415909314
-87.64717909,41.86967104,0,0.8134417,14-56-06-546,1500580566547,-0.22672041,-0.20413353,0.14249213,326,0.11582798,0.14968741,0.010768937,-3.4300486439,1.3264361838,166.7296304705
-87.64717909,41.86967104,0,0.8134417,14-56-06-638,1500580566639,0.5244195,-0.36225173,-0.2454921,327,-0.052483805,0.048487276,0.14126383,-2.93507508,1.020437946,166.3914131632
-87.64717909,41.86967104,0,0.8134417,14-56-06-647,1500580566648,0.7893191,-0.42088845,-0.07728078,331,0.0082362695,0.06499888,0.08959851,-2.9100031631,0.8083548626,166.4507675071
-87.64717909,41.86967104,0,0.8134417,14-56-06-739,1500580566741,0.345948,-0.1574132,-0.04410284,336,0.1211543,-0.010102267,0.044324767,-2.6736404114,0.4973038323,166.3576856891
-87.64717909,41.86967104,0,0.8134417,14-56-06-746,1500580566747,0.016173517,-0.1166476,-0.093971096,336,0.1211543,-0.010102267,0.044324767,-2.6566010105,0.5014919122,166.2787423627
-87.64717909,41.86967104,0,0.8134417,14-56-06-837,1500580566838,-0.12156394,-0.49952552,-0.92297053,341,0.18134174,0.069259934,0.049118455,-2.8436461678,0.2463958727,165.4559504545
-87.64717909,41.86967104,0,0.8134417,14-56-06-847,1500580566848,-0.5038039,-0.51466733,-1.2369101,343,0.041259468,0.029845148,0.10504484,-3.1356382489,0.089546408,165.1264348082
-87.64717909,41.86967104,0,0.8134417,14-56-06-939,1500580566941,0.4290984,-0.718932,-0.06528238,352,0.23780076,0.09642418,-0.1122691,-3.3897031433,-0.4461646319,164.7917828596
-87.64717909,41.86967104,0,0.8134417,14-56-06-947,1500580566947,0.3087858,-0.51417387,-0.302973,351,0.22768074,0.07458626,-0.1122691,-3.3005299011,-0.3615417363,164.6136105449
-87.64717909,41.86967104,0,0.8134417,14-56-07-039,1500580567040,1.5528617,-0.61707765,0.98136795,344,0.4433968,-0.16989192,-0.26193875,-3.0357898478,-0.019279653,163.7624596913
-87.64717909,41.86967104,0,0.8134417,14-56-07-046,1500580567047,1.6260731,-0.8106412,0.55005217,340,0.25005132,-0.19172984,-0.1815113,-3.0354033018,0.18289447,163.2971735447
-87.64717909,41.86967104,0,0.8134417,14-56-07-139,1500580567140,0.62283313,0.08371297,-0.16574578,331,0.026345767,-0.09905185,-0.012134249,-3.9871814115,0.7740550934,162.0297090008
-87.64717909,41.86967104,0,0.8134417,14-56-07-146,1500580567147,0.88883984,-0.06579326,0.36614123,332,0.12914379,-0.011700164,-0.077648014,-4.1944866174,0.7563876351,161.9817883935
-87.64717996,41.8696691,0.3471311,0.9667328,14-56-07-240,1500580567240,0.3721015,0.45523483,0.4702883,326,-0.013601652,0.02771462,0.11782802,-3.7508645502,1.0084167063,161.2333089435
-87.64717996,41.8696691,0.3471311,0.9667328,14-56-07-247,1500580567248,0.3170473,0.60702574,0.46382606,325,0.023149973,-0.02501597,0.09599009,-3.462780191,0.9699400096,161.0365994954
-87.64717996,41.8696691,0.3471311,0.9667328,14-56-07-339,1500580567340,-0.10420908,0.6951099,0.16336024,330,-0.31453884,0.021855665,0.14019857,-3.4724180148,0.6533190667,160.9482031872
-87.64717996,41.8696691,0.3471311,0.9667328,14-56-07-349,1500580567350,-0.32147965,0.81168896,0.29726353,332,-0.23038296,0.07884731,0.11516485,-3.4902949678,0.5890096874,161.1548573907
-87.64717996,41.8696691,0.3471311,0.9667328,14-56-07-439,1500580567439,-0.098519705,0.7368004,-0.0091269575,332,0.16483015,0.0671294,-0.06273431,-3.2095244606,0.5602066729,161.7330875455
-87.64717996,41.8696691,0.3471311,0.9667328,14-56-07-449,1500580567450,-0.6936236,0.96382684,-0.43566743,330,0.17654805,0.14063266,-0.031841643,-3.2536286996,0.6535966499,161.5755970436
-87.64717996,41.8696691,0.3471311,0.9667328,14-56-07-540,1500580567541,-0.5238584,0.8294882,-0.62139314,324,-0.22931771,0.29882443,0.079478495,-2.6586522016,0.8049975045,161.1786401094
-87.64717996,41.8696691,0.3471311,0.9667328,14-56-07-550,1500580567551,-0.4253983,0.73803294,-0.24523234,324,-0.16540185,0.29722652,0.077347964,-2.3902007944,0.7398016413,161.3984082762
-87.64717996,41.8696691,0.3471311,0.9667328,14-56-07-639,1500580567641,-0.2986568,0.9657409,-0.19272883,330,0.03699841,0.06127045,0.07095638,-1.6830196563,0.3539211662,161.716135016
-87.64717996,41.8696691,0.3471311,0.9667328,14-56-07-649,1500580567650,-0.009128101,0.8190073,-0.574655,333,-0.06526698,0.10760945,0.044324767,-1.7796938337,0.2637478348,161.6173568202
-87.64717996,41.8696691,0.3471311,0.9667328,14-56-07-739,1500580567740,0.61641985,0.12547836,0.6606962,339,-0.22878507,-0.4713618,0.032606855,-1.4772706663,0.0690676533,162.0483690776
-87.64717996,41.8696691,0.3471311,0.9667328,14-56-07-751,1500580567752,1.0006219,-0.07257697,0.5355032,342,-0.23517667,-0.5113092,0.035270017,-1.6890532747,0.0193737115,162.2735604145
-87.64717996,41.8696691,0.3471311,0.9667328,14-56-07-841,1500580567845,1.2248694,-0.2671495,-0.5490468,344,-0.43012005,0.23277803,-0.08297434,-4.4482533314,0.0222514807,163.8305566773
-87.64717996,41.8696691,0.3471311,0.9667328,14-56-07-849,1500580567849,1.2248694,-0.2671495,-0.5490468,344,-0.43012005,0.23277803,-0.08297434,-4.4482533314,0.0222514807,163.8305566773
-87.64717996,41.8696691,0.3471311,0.9667328,14-56-07-940,1500580567941,1.7780746,-0.83069307,1.1467224,337,-0.17126079,1.7744722E-05,-0.1916313,-3.8531120552,0.6027632338,165.4563056243
-87.64717996,41.8696691,0.3471311,0.9667328,14-56-07-948,1500580567949,1.4308109,-0.951111,1.0156671,333,-0.14835761,-0.053778112,-0.1634018,-3.7659814664,0.8209418874,165.6734783192
-87.64717996,41.8696691,0.3471311,0.9667328,14-56-08-040,1500580568041,-0.09434462,-0.5453484,0.7242172,323,-0.2543514,0.091097854,0.03793318,-3.3551268048,1.4464184884,166.5616214773
-87.64717996,41.8696691,0.3471311,0.9667328,14-56-08-049,1500580568050,-0.07562025,-0.5856136,0.95876944,322,-0.2543514,0.091097854,0.03793318,-2.8755043045,1.3571772644,166.9432924482
-87.64717996,41.8696691,0.3471311,0.9667328,14-56-08-140,1500580568141,-0.8689201,-0.40410027,-0.014683695,321,-0.1515534,-0.04152757,-0.0195911,-2.3926515516,1.2172627602,168.0063840717
-87.64717996,41.8696691,0.3471311,0.9667328,14-56-08-149,1500580568151,-0.7835794,-0.3299155,-0.1581682,321,-0.17605448,-0.09425816,-0.06326694,-2.3409711387,1.2009358333,168.1692567627
-87.64717996,41.8696691,0.3471311,0.9667328,14-56-08-244,1500580568245,-0.032873154,-0.559301,-0.11959111,319,0.12967642,-0.039929673,-0.14635757,-2.628300762,1.4991063542,168.8722061717
-87.64717914,41.86966313,0.88814414,1.6138921,14-56-08-250,1500580568250,0.5543472,-0.48424217,0.0981126,317,0.20104913,-0.17734878,-0.15647759,-2.6303075569,1.6289427008,168.8728208887
-87.64717914,41.86966313,0.88814414,1.6138921,14-56-08-341,1500580568342,0.9708986,-0.29869428,0.47825512,314,0.12541535,-0.03460335,-0.05740799,-3.2752439004,2.1997892076,167.8023116797
-87.64717914,41.86966313,0.88814414,1.6138921,14-56-08-351,1500580568352,1.659156,-0.4153241,0.86576736,313,0.22395232,0.0074745957,-0.10800805,-3.3391475772,2.2726822671,167.5251426032
-87.64717914,41.86966313,0.88814414,1.6138921,14-56-08-441,1500580568441,1.331293,0.9348557,0.27179813,304,0.023149973,0.34942448,0.07575007,-2.806126658,2.5697982707,166.7862390784
-87.64717914,41.86966313,0.88814414,1.6138921,14-56-08-467,1500580568468,1.9738184,0.92649734,1.6994807,300,0.36190408,0.15767689,0.074684806,-2.3664795474,2.5384767307,166.8391184029
-87.64717914,41.86966313,0.88814414,1.6138921,14-56-08-545,1500580568546,-0.06691063,0.02377116,1.4736588,216,0.16216698,-0.025548603,0.07095638,2.0255320854,2.4658225144,165.5534309143
-87.64717914,41.86966313,0.88814414,1.6138921,14-56-08-558,1500580568558,-0.06691063,0.02377116,1.4736588,216,0.16216698,-0.025548603,0.07095638,2.0255320854,2.4658225144,165.5534309143
-87.64717914,41.86966313,0.88814414,1.6138921,14-56-08-646,1500580568646,-1.1616842,-0.031843893,-0.21569864,214,-0.050353274,-0.30677843,0.12368697,1.8365595341,2.1185007784,165.0087779695
-87.64717914,41.86966313,0.88814414,1.6138921,14-56-08-660,1500580568662,-1.1616842,-0.031843893,-0.21569864,214,-0.050353274,-0.30677843,0.12368697,1.8365595341,2.1185007784,165.0087779695
-87.64717914,41.86966313,0.88814414,1.6138921,14-56-08-746,1500580568747,-0.27050418,0.4618552,-0.49524656,243,-0.059408024,-0.2652331,0.038998444,0.3279089244,1.4929824493,165.329523653
-87.64717914,41.86966313,0.88814414,1.6138921,14-56-08-757,1500580568759,-0.27050418,0.4618552,-0.49524656,243,-0.059408024,-0.2652331,0.038998444,0.3279089244,1.4929824493,165.329523653
-87.64717914,41.86966313,0.88814414,1.6138921,14-56-08-846,1500580568847,1.6071379,0.37708515,0.88392955,293,-0.0040142713,-0.3445953,0.18280914,-0.9083165488,1.1968695229,165.6140283526
-87.64717914,41.86966313,0.88814414,1.6138921,14-56-08-860,1500580568861,1.6071379,0.37708515,0.88392955,293,-0.0040142713,-0.3445953,0.18280914,-0.9083165488,1.1968695229,165.6140283526
-87.64717914,41.86966313,0.88814414,1.6138921,14-56-08-946,1500580568947,1.7504007,-1.0654477,0.59652406,343,-0.14462918,-0.004775945,-0.10108383,-1.849208831,0.1281602022,167.039475172
-87.64717914,41.86966313,0.88814414,1.6138921,14-56-08-957,1500580568959,1.7504007,-1.0654477,0.59652406,343,-0.14462918,-0.004775945,-0.10108383,-1.849208831,0.1281602022,167.039475172
-87.64717914,41.86966313,0.88814414,1.6138921,14-56-09-047,1500580569047,-0.49179637,-0.6365849,0.4798161,299,0.0140952235,0.33397815,-0.09522487,-0.9232458482,1.0394734697,167.4936554311
-87.64717914,41.86966313,0.88814414,1.6138921,14-56-09-059,1500580569062,-0.49179637,-0.6365849,0.4798161,299,-0.0013511104,0.30947706,-0.06539747,-0.9232458482,1.0394734697,167.4936554311
-87.64717914,41.86966313,0.88814414,1.6138921,14-56-09-148,1500580569149,-0.92771083,-0.5083767,0.42805025,236,-0.17765237,-0.15338033,-0.0078731915,0.569852074,1.4492594202,167.5693885686
-87.64717914,41.86966313,0.88814414,1.6138921,14-56-09-161,1500580569163,-0.92771083,-0.5083767,0.42805025,236,-0.17765237,-0.15338033,-0.0078731915,0.569852074,1.4492594202,167.5693885686
-87.64717654,41.86965398,1.0834205,2.6508782,14-56-09-247,1500580569248,-1.2811263,-0.72866136,-0.49480793,273,0.21010388,-0.11343292,-0.10481226,-0.3877562158,1.5156340246,168.2673109584
-87.64717654,41.86965398,1.0834205,2.6508782,14-56-09-259,1500580569260,-1.2811263,-0.72866136,-0.49480793,273,0.21010388,-0.11343292,-0.10481226,-0.3877562158,1.5156340246,168.2673109584
-87.64717654,41.86965398,1.0834205,2.6508782,14-56-09-348,1500580569350,1.1240997,-0.4815906,-0.9642241,290,-0.29642937,-0.011167532,0.1093059,-1.111478071,1.7976917023,167.8129257937
-87.64717654,41.86965398,1.0834205,2.6508782,14-56-09-358,1500580569359,1.1240997,-0.4815906,-0.9642241,290,-0.29642937,-0.011167532,0.1093059,-1.111478071,1.7976917023,167.8129257937
-87.64717654,41.86965398,1.0834205,2.6508782,14-56-09-448,1500580569449,2.1106775,0.69980526,0.6521637,295,0.05297738,0.24769174,0.07841323,-0.9911679173,1.3370816739,168.0505753956
-87.64717654,41.86965398,1.0834205,2.6508782,14-56-09-459,1500580569461,2.1106775,0.69980526,0.6521637,295,0.05297738,0.24769174,0.07841323,-0.9911679173,1.3370816739,168.0505753956
-87.64717654,41.86965398,1.0834205,2.6508782,14-56-09-550,1500580569551,0.5640896,0.5476372,0.4365222,282,-0.01786271,0.1693948,-0.04036376,-0.4291038065,0.9681449505,167.8754083642
-87.64717654,41.86965398,1.0834205,2.6508782,14-56-09-564,1500580569565,0.5640896,0.5476372,0.4365222,284,0.01302996,0.28071493,-0.030243745,-0.4291038065,0.9681449505,167.8754083642
-87.64717654,41.86965398,1.0834205,2.6508782,14-56-09-650,1500580569651,-1.5157164,0.15273032,0.27950442,239,0.17228699,-0.012232796,0.10611011,0.3489975069,1.0523512578,167.532177698
-87.64717654,41.86965398,1.0834205,2.6508782,14-56-09-663,1500580569664,-1.6915318,0.16352461,-0.044902362,236,0.17388488,-0.04845179,0.13593751,0.3894125634,0.9884941117,167.3157973051
-87.64717654,41.86965398,1.0834205,2.6508782,14-56-09-750,1500580569751,-0.9501489,0.33907568,-0.70827234,226,-0.02318903,-0.036201246,0.17801546,0.1911295437,0.3182236361,166.7212976398
-87.64717654,41.86965398,1.0834205,2.6508782,14-56-09-762,1500580569764,-0.5030158,0.31702077,-0.658605,203,0.04711842,0.038367264,0.12102381,0.1247364231,0.0921053544,166.7484408115
-87.64717654,41.86965398,1.0834205,2.6508782,14-56-09-851,1500580569852,1.7588887,0.13075185,-0.75903153,102,-0.42479372,0.0016156414,0.034737386,0.1377957848,-0.2877681427,166.6885400525
-87.64717654,41.86965398,1.0834205,2.6508782,14-56-09-862,1500580569863,1.7588887,0.13075185,-0.75903153,102,-0.42479372,0.0016156414,0.034737386,0.1377957848,-0.2877681427,166.6885400525
-87.64717654,41.86965398,1.0834205,2.6508782,14-56-09-951,1500580569951,1.7674667,-0.7798197,1.2450966,82,-0.34489888,0.19868957,0.0027794528,0.0474834818,-0.7546469507,168.6827777052
-87.64717654,41.86965398,1.0834205,2.6508782,14-56-09-961,1500580569962,1.7674667,-0.7798197,1.2450966,82,-0.34489888,0.19868957,0.0027794528,0.0474834818,-0.7546469507,168.6827777052
-87.64717654,41.86965398,1.0834205,2.6508782,14-56-10-052,1500580570052,0.62788504,-1.0144526,-0.058522966,154,-0.08976807,0.2871065,-0.16393444,0.9639695704,-0.2731157861,169.772452425
-87.64717654,41.86965398,1.0834205,2.6508782,14-56-10-062,1500580570063,0.62788504,-1.0144526,-0.058522966,154,-0.20907769,0.2189296,-0.07498485,0.9639695704,-0.2731157861,169.772452425
-87.64717654,41.86965398,1.0834205,2.6508782,14-56-10-152,1500580570152,-1.4040546,-0.3082624,-0.046299003,178,-0.20694715,0.044226218,0.053379513,2.0586008732,0.2760095452,170.6299826753
-87.64717654,41.86965398,1.0834205,2.6508782,14-56-10-163,1500580570163,-1.4040546,-0.3082624,-0.046299003,178,-0.1829787,-0.1065087,0.045922663,2.0586008732,0.2760095452,170.6299826753
-87.64717433,41.86964344,1.2110327,3.8315964,14-56-10-252,1500580570252,-1.3058816,-0.39388305,-0.43903098,170,0.11316481,-0.2652331,-0.07711538,1.6184988079,-0.0414177202,171.5831765551
-87.64717433,41.86964344,1.2110327,3.8315964,14-56-10-266,1500580570268,-0.96559596,-0.6204909,-0.66947365,170,0.22075653,-0.21303514,-0.12398702,1.3129558449,-0.0355895078,171.5506375339
-87.64717433,41.86964344,1.2110327,3.8315964,14-56-10-352,1500580570353,0.44085833,-0.32425663,-0.9595415,228,0.25005132,-0.23274253,-0.015330043,0.324155682,0.5158823204,170.4650882484
-87.64717433,41.86964344,1.2110327,3.8315964,14-56-10-366,1500580570367,0.9063939,-0.12886126,-0.96618104,251,0.14299221,-0.20344776,0.02568264,0.0975727141,0.6301856962,170.1228547898
-87.64717433,41.86964344,1.2110327,3.8315964,14-56-10-452,1500580570453,2.749186,-0.04611253,0.98523134,312,0.19359228,-0.018091751,-0.014264778,-0.6442540716,0.494889734,169.743929555
-87.64717433,41.86964344,1.2110327,3.8315964,14-56-10-467,1500580570468,2.3860106,-0.124327496,1.5417808,321,0.29852083,0.12731685,-0.04995114,-0.8288074906,0.4634631265,169.7483008761
-87.64717433,41.86964344,1.2110327,3.8315964,14-56-10-553,1500580570554,1.3143128,0.636764,-0.024956416,285,0.2170281,0.24449594,-0.054212198,-0.3215567417,0.6441344366,168.4932945973
-87.64717433,41.86964344,1.2110327,3.8315964,14-56-10-567,1500580570567,0.9404458,0.571394,0.679922,264,0.23140918,0.30148757,-0.038765863,-0.0721541384,0.692767678,168.2403726923
-87.64717433,41.86964344,1.2110327,3.8315964,14-56-10-656,1500580570657,-0.53171915,0.24046901,0.8669433,199,0.15151434,0.15235057,-0.06699537,1.5130217974,0.9214768292,167.1737840119
-87.64717433,41.86964344,1.2110327,3.8315964,14-56-10-667,1500580570668,-0.77934563,0.12599872,0.7710268,195,0.12861115,0.050617807,-0.041429024,1.8711213585,0.996429831,166.9438798444
-87.64717433,41.86964344,1.2110327,3.8315964,14-56-10-756,1500580570757,-1.508647,-0.025378,0.17550647,194,0.22235443,-0.25564572,0.20091864,1.9922554038,1.0262878963,166.2408894543
-87.64717433,41.86964344,1.2110327,3.8315964,14-56-10-767,1500580570768,-1.1850942,0.1736065,-0.016209062,192,0.1840049,-0.20877407,0.19505969,1.7755562331,0.8480286034,166.0050840034
-87.64717433,41.86964344,1.2110327,3.8315964,14-56-10-856,1500580570858,0.87920946,0.14153856,-0.89215356,174,-0.10894282,-0.21463303,0.1290133,0.6638921462,0.1043262437,165.4351593587
-87.64717433,41.86964344,1.2110327,3.8315964,14-56-10-868,1500580570869,1.2159574,-0.0106807565,-0.59453326,161,-0.11267125,-0.23274253,0.1109038,0.3505479866,-0.0299714304,165.5197171006
-87.64717433,41.86964344,1.2110327,3.8315964,14-56-10-958,1500580570958,2.6496048,-0.13693705,0.44233793,13,-0.47699168,0.019192504,0.042194236,-0.9704762861,-0.4991393389,166.0070237771
-87.64717433,41.86964344,1.2110327,3.8315964,14-56-10-966,1500580570967,2.1389205,-0.50652266,-0.18998063,10,-0.48178536,0.15554637,-0.13996598,-1.3463234535,-0.5861629926,166.2787150419
-87.64717433,41.86964344,1.2110327,3.8315964,14-56-11-055,1500580571059,1.1131887,-1.331846,0.92839956,323,0.18986386,0.14968741,-0.33277884,-0.7865004984,0.3663315399,168.0079550152
-87.64717433,41.86964344,1.2110327,3.8315964,14-56-11-067,1500580571068,0.19350031,-1.2042173,1.0441118,295,0.27934608,0.30202022,-0.21932818,-0.4237351444,0.5719510765,168.0478843011
-87.64717433,41.86964344,1.2110327,3.8315964,14-56-11-155,1500580571155,-1.8250346,-0.47414997,0.0058361115,229,-0.16327131,0.12252316,0.19133127,0.6923931382,1.2621757363,167.2963995679
-87.64717433,41.86964344,1.2110327,3.8315964,14-56-11-169,1500580571170,-1.5740111,-0.6673979,0.07914622,217,-0.11267125,0.100152604,0.14872068,0.8998051726,1.0630036849,167.4499968619
-87.64717218,41.86963253,1.34,5.0535054,14-56-11-257,1500580571258,-1.5716032,-0.45328638,0.17252411,194,0.059368964,-0.17734878,-0.1618039,1.1467252622,0.5512008017,167.8580323629
-87.64717218,41.86963253,1.34,5.0535054,14-56-11-273,1500580571274,-1.5018005,-0.6518858,-0.41406146,203,0.074815296,-0.14326032,-0.14316177,0.9517862205,0.6675054763,167.792899679
-87.64717218,41.86963253,1.34,5.0535054,14-56-11-355,1500580571357,0.40240827,-0.6698523,-0.8305677,241,0.09292479,-0.14006452,0.09599009,0.3328643066,1.1324647877,167.231704016
-87.64717218,41.86963253,1.34,5.0535054,14-56-11-368,1500580571369,0.98628515,-0.38504446,-0.6497393,243,0.0045078443,-0.12248767,0.079478495,0.2688679688,1.1068653455,167.0061575093
-87.64717218,41.86963253,1.34,5.0535054,14-56-11-459,1500580571461,2.7950969,-0.51538205,1.9964352,250,0.38853568,-0.02501597,-0.15647759,0.1114175342,0.8729284849,167.1384582735
-87.64717218,41.86963253,1.34,5.0535054,14-56-11-468,1500580571469,3.2001843,-0.50458974,2.5969975,248,0.40238413,0.06766204,-0.18896815,0.1527471223,0.9364417737,167.0928326098
-87.64717218,41.86963253,1.34,5.0535054,14-56-11-563,1500580571565,1.0668235,0.61436737,0.042760555,236,-0.06473435,0.31640127,-0.05740799,0.6610745331,1.8455612965,165.7086947745
-87.64717218,41.86963253,1.34,5.0535054,14-56-11-569,1500580571570,1.0668235,0.61436737,0.042760555,236,-0.06473435,0.31640127,-0.05740799,0.6610745331,1.8455612965,165.7086947745
-87.64717218,41.86963253,1.34,5.0535054,14-56-11-659,1500580571660,-0.6480528,0.116828926,1.2124223,212,0.13180694,0.088434696,-0.09682277,2.0433494876,2.0894097221,166.0838634053
-87.64717218,41.86963253,1.34,5.0535054,14-56-11-669,1500580571670,-0.9033149,-0.12309754,1.258752,210,0.23034391,-0.023950707,-0.07445222,2.2821085685,2.1540561819,166.153790882
-87.64717218,41.86963253,1.34,5.0535054,14-56-11-759,1500580571760,-1.7919496,-0.10532384,-0.41601658,214,0.111566916,-0.34725848,0.21050602,2.0088935311,2.3109473347,165.3144425953
-87.64717218,41.86963253,1.34,5.0535054,14-56-11-770,1500580571775,-1.422106,0.06134968,-0.14890306,216,-0.021058502,-0.3264858,0.20091864,1.7206910311,2.1286638864,165.1385652241
-87.64717218,41.86963253,1.34,5.0535054,14-56-11-860,1500580571862,-0.13694973,0.33868867,-1.1319318,261,-0.41147792,-0.24339518,0.20624496,-0.1376967471,1.3495845486,165.5950267664
-87.64717218,41.86963253,1.34,5.0535054,14-56-11-871,1500580571873,0.5830713,0.08782561,-0.77504164,275,-0.38378105,-0.25777626,0.19452706,-0.3863833211,1.1131379137,166.053236837
-87.64717218,41.86963253,1.34,5.0535054,14-56-11-961,1500580571962,2.7225466,-0.1295998,2.2237506,335,-0.2026861,-0.08467078,0.020356316,-1.371755983,0.3013469056,167.5509197371
-87.64717218,41.86963253,1.34,5.0535054,14-56-11-974,1500580571975,3.2265968,-0.8314683,1.2652799,342,-0.40988,0.13690424,0.06190163,-1.6803273878,0.1628011874,167.677250916
-87.64717218,41.86963253,1.34,5.0535054,14-56-12-062,1500580572063,1.8436738,-1.0790097,0.9657893,349,0.009834166,0.33344552,-0.16926076,-1.2643877571,0.0173734016,169.3101715616
-87.64717218,41.86963253,1.34,5.0535054,14-56-12-070,1500580572071,1.568542,-1.0681896,0.8275163,344,0.009834166,0.33344552,-0.16926076,-1.1103440462,0.1048221595,169.5865346758
-87.64717218,41.86963253,1.34,5.0535054,14-56-12-163,1500580572164,-0.92180353,-0.37242904,1.3080971,227,-0.005612168,0.14915478,0.08533745,0.3892144879,0.6067698868,169.5765625996
-87.64717218,41.86963253,1.34,5.0535054,14-56-12-170,1500580572172,-0.87228686,-0.30406573,0.6267688,206,-0.05834276,0.070325196,0.0597711,0.7247945951,0.5386763692,169.5187108974
-87.64717154,41.86962134,1.3701459,6.2841244,14-56-12-265,1500580572266,-1.399095,-0.300821,-0.1128896,198,0.048183687,-0.16350034,-0.09415961,0.7828733478,0.4136255573,169.7588603486
-87.64717154,41.86962134,1.3701459,6.2841244,14-56-12-272,1500580572273,-1.399095,-0.300821,-0.1128896,198,0.048183687,-0.16350034,-0.09415961,0.7828733478,0.4136255573,169.7588603486
-87.64717154,41.86962134,1.3701459,6.2841244,14-56-12-362,1500580572363,-0.35624668,-0.6330693,-0.282208,264,0.14725327,-0.33021423,0.08427218,-0.0573565202,0.7405398887,169.3151439393
-87.64717154,41.86962134,1.3701459,6.2841244,14-56-12-372,1500580572374,0.31648734,-0.48821303,-0.22285408,285,0.14725327,-0.33021423,0.08427218,-0.3296882153,0.6815009075,169.0657737327
-87.64717154,41.86962134,1.3701459,6.2841244,14-56-12-466,1500580572467,2.7859623,-0.77915066,1.1781942,332,0.60798013,-0.18959932,-0.24489453,-1.6744132978,0.5084718319,168.4266592717
-87.64717154,41.86962134,1.3701459,6.2841244,14-56-12-474,1500580572475,3.4479897,-0.64984256,1.8599879,330,0.66284126,0.078314684,-0.24809033,-1.9765468224,0.6580524412,168.1381794019
-87.64717154,41.86962134,1.3701459,6.2841244,14-56-12-564,1500580572565,2.0847366,1.0270058,0.68862975,301,0.1525796,0.047422014,-0.017993204,-1.5990865565,1.5675044021,165.8334003684
-87.64717154,41.86962134,1.3701459,6.2841244,14-56-12-573,1500580572574,1.5742325,0.85304624,0.9995676,293,0.1525796,0.047422014,-0.017993204,-1.3079410987,1.7276740457,165.5762300858
-87.64717154,41.86962134,1.3701459,6.2841244,14-56-12-663,1500580572664,-1.0233692,0.43937394,1.2361518,273,0.2021144,0.108142085,0.038998444,-0.5135141657,1.6000067111,165.0948383531
-87.64717154,41.86962134,1.3701459,6.2841244,14-56-12-672,1500580572673,-0.7250207,0.13880014,1.3152596,259,0.2021144,0.108142085,0.038998444,-0.0898545936,1.4129900485,165.0457019722
-87.64717154,41.86962134,1.3701459,6.2841244,14-56-12-764,1500580572765,-2.1407578,-0.36261544,0.080039285,237,0.23993129,-0.11982451,0.15830806,0.3586248453,1.1615657692,164.1140368486
-87.64717154,41.86962134,1.3701459,6.2841244,14-56-12-776,1500580572777,-2.0773554,-0.13677251,0.31064138,237,0.23993129,-0.11982451,0.15830806,0.322048542,1.0673178031,163.8370726778
-87.64717154,41.86962134,1.3701459,6.2841244,14-56-12-865,1500580572865,-0.064966105,0.4165421,-0.99995685,279,-0.20534925,-0.22475305,0.005975246,-0.2158242394,0.4503648513,163.3131288666
-87.64717154,41.86962134,1.3701459,6.2841244,14-56-12-872,1500580572873,0.6703522,-0.07720714,-0.3251505,290,-0.20534925,-0.22475305,0.005975246,-0.2306902529,0.3146385071,163.6494747021
-87.64717154,41.86962134,1.3701459,6.2841244,14-56-12-966,1500580572966,2.5572352,0.30887192,0.7385741,333,-0.49936223,-0.074018136,-0.059005886,-1.1557804922,0.2437941842,164.7073480611
-87.64717154,41.86962134,1.3701459,6.2841244,14-56-12-972,1500580572974,3.5056803,-0.023276445,0.7898766,335,-0.49936223,-0.074018136,-0.059005886,-1.477178352,0.2494436578,164.9780421183
-87.64717154,41.86962134,1.3701459,6.2841244,14-56-13-065,1500580573066,1.8214285,-1.012436,1.8736125,331,-0.29536408,0.13743687,-0.034504805,-1.7154294375,0.5067571877,167.8186768129
-87.64717154,41.86962134,1.3701459,6.2841244,14-56-13-074,1500580573075,1.8214285,-1.012436,1.8736125,331,-0.29536408,0.13743687,-0.034504805,-1.7154294375,0.5067571877,167.8186768129
-87.64717154,41.86962134,1.3701459,6.2841244,14-56-13-166,1500580573167,-0.8299017,-0.5752776,0.9079402,284,0.0007794186,0.1992222,-0.04995114,-0.3504591941,0.7537694315,169.2637126149
-87.64717154,41.86962134,1.3701459,6.2841244,14-56-13-173,1500580573174,-0.8299017,-0.5752776,0.9079402,284,0.0007794186,0.1992222,-0.04995114,-0.3504591941,0.7537694315,169.2637126149
-87.64717207,41.86961009,1.3562448,7.5116,14-56-13-268,1500580573268,-2.3511293,-0.0054361955,-0.7909822,240,-0.18138081,-0.10704134,0.0597711,0.3514530133,1.0290136754,169.1352913981
-87.64717207,41.86961009,1.3562448,7.5116,14-56-13-273,1500580573273,-2.3511293,-0.0054361955,-0.7909822,240,-0.18138081,-0.10704134,0.0597711,0.3514530133,1.0290136754,169.1352913981
-87.64717207,41.86961009,1.3562448,7.5116,14-56-13-367,1500580573368,0.7204662,-0.5912838,0.31391782,287,0.06309739,-0.3509869,0.053379513,-0.3600079853,0.7107459099,169.9857045913
-87.64717207,41.86961009,1.3562448,7.5116,14-56-13-374,1500580573375,0.7204662,-0.5912838,0.31391782,287,0.06309739,-0.3509869,0.053379513,-0.3600079853,0.7107459099,169.9857045913
-87.64717207,41.86961009,1.3562448,7.5116,14-56-13-468,1500580573469,2.9970853,-0.4497108,1.2670015,329,0.38640517,-0.08626868,-0.21719766,-1.9744111077,0.7276754942,169.6852855508
-87.64717207,41.86961009,1.3562448,7.5116,14-56-13-475,1500580573476,2.9970853,-0.4497108,1.2670015,329,0.38640517,-0.08626868,-0.21719766,-1.9744111077,0.7276754942,169.6852855508
-87.64717207,41.86961009,1.3562448,7.5116,14-56-13-568,1500580573569,1.3547908,0.9372093,-0.019331254,312,0.30224928,0.1646011,-0.010536352,-2.1734605359,1.5188035525,167.1391549528
-87.64717207,41.86961009,1.3562448,7.5116,14-56-13-577,1500580573577,1.3547908,0.9372093,-0.019331254,312,0.30224928,0.1646011,-0.010536352,-2.1734605359,1.5188035525,167.1391549528
-87.64717207,41.86961009,1.3562448,7.5116,14-56-13-668,1500580573669,-1.1391445,0.29463834,0.8437822,284,0.037531044,0.20135273,-0.020656364,-0.8486239504,1.6157156126,166.0888494434
-87.64717207,41.86961009,1.3562448,7.5116,14-56-13-676,1500580573677,-1.1391445,0.29463834,0.8437822,284,0.037531044,0.20135273,-0.020656364,-0.8486239504,1.6157156126,166.0888494434
-87.64717207,41.86961009,1.3562448,7.5116,14-56-13-768,1500580573769,-1.6846737,-0.040836997,0.17131758,256,-0.024254296,-0.16456561,0.1785481,-0.0153610954,1.6913768196,165.439721925
-87.64717207,41.86961009,1.3562448,7.5116,14-56-13-777,1500580573778,-1.4429282,0.120769344,0.21820997,257,-0.024254296,-0.16456561,0.1785481,-0.0468755949,1.6415946657,165.1900921712
-87.64717207,41.86961009,1.3562448,7.5116,14-56-13-868,1500580573869,0.30410016,0.3592407,-0.46405584,310,-0.21706717,-0.19865407,0.017160524,-1.2466728077,0.8579566569,164.80588037
-87.64717207,41.86961009,1.3562448,7.5116,14-56-13-876,1500580573876,0.30410016,0.3592407,-0.46405584,310,-0.21706717,-0.19865407,0.017160524,-1.2466728077,0.8579566569,164.80588037
-87.64717207,41.86961009,1.3562448,7.5116,14-56-13-968,1500580573969,2.742874,-0.026896484,1.6214803,330,-0.35927996,0.09163049,0.064564794,-2.6119219683,0.6962500606,165.0726948798
-87.64717207,41.86961009,1.3562448,7.5116,14-56-13-975,1500580573976,2.742874,-0.026896484,1.6214803,330,-0.35927996,0.09163049,0.064564794,-2.6119219683,0.6962500606,165.0726948798
-87.64717207,41.86961009,1.3562448,7.5116,14-56-14-068,1500580574069,1.6422008,-1.0384986,0.314361,334,0.0050404766,0.39736137,-0.18896815,-2.452534168,0.5063842486,165.799085498
-87.64717207,41.86961009,1.3562448,7.5116,14-56-14-076,1500580574076,1.4373468,-1.1826067,-0.043200217,332,0.08280478,0.48790887,-0.21506713,-2.2418268875,0.5533154389,165.9207448275
-87.64717207,41.86961009,1.3562448,7.5116,14-56-14-168,1500580574169,-0.8332587,-0.24280767,1.0014251,213,0.026345767,0.1347737,-0.04515745,0.9771059452,1.1040011483,164.5235613309
-87.64717207,41.86961009,1.3562448,7.5116,14-56-14-175,1500580574177,-0.8332587,-0.24280767,1.0014251,213,0.026345767,0.1347737,-0.04515745,0.9771059452,1.1040011483,164.5235613309
-87.6471733,41.86959875,1.3300377,8.749021,14-56-14-268,1500580574269,-1.5699815,0.057905048,-0.27049434,213,-0.08284385,-0.3115721,0.06882585,1.0845348957,1.2272428405,163.9906699719
-87.6471733,41.86959875,1.3300377,8.749021,14-56-14-275,1500580574276,-1.5699815,0.057905048,-0.27049434,213,-0.08284385,-0.3115721,0.06882585,1.0845348957,1.2272428405,163.9906699719
-87.6471733,41.86959875,1.3300377,8.749021,14-56-14-368,1500580574369,0.71451,-0.45302582,-0.119387135,301,0.20744072,-0.31849635,0.042194236,-0.9224124584,0.8322300557,163.5415303924
-87.6471733,41.86959875,1.3300377,8.749021,14-56-14-377,1500580574380,0.71451,-0.45302582,-0.119387135,301,0.20744072,-0.31849635,0.042194236,-0.9224124584,0.8322300557,163.5415303924
-87.6471733,41.86959875,1.3300377,8.749021,14-56-14-468,1500580574469,2.5422971,-0.5861432,1.2655562,318,0.5259548,-0.045255996,-0.2097408,-2.400936998,1.0779958434,161.8123997021
-87.6471733,41.86959875,1.3300377,8.749021,14-56-14-476,1500580574476,2.5422971,-0.5861432,1.2655562,318,0.5259548,-0.045255996,-0.2097408,-2.400936998,1.0779958434,161.8123997021
-87.6471733,41.86959875,1.3300377,8.749021,14-56-14-568,1500580574569,0.6199505,1.2004554,-0.18529963,298,0.10837112,0.21200538,-0.024917422,-2.1238351561,1.8993212886,159.3536955255
-87.6471733,41.86959875,1.3300377,8.749021,14-56-14-575,1500580574576,0.6199505,1.2004554,-0.18529963,298,0.10837112,0.21200538,-0.024917422,-2.1238351561,1.8993212886,159.3536955255
-87.6471733,41.86959875,1.3300377,8.749021,14-56-14-668,1500580574668,-0.9260113,-0.36383113,0.63091004,273,0.17708068,0.112935774,-0.008938456,-0.6640458788,1.5574209085,159.6606852079
-87.6471733,41.86959875,1.3300377,8.749021,14-56-14-677,1500580574677,-0.9260113,-0.36383113,0.63091004,273,0.17708068,0.112935774,-0.008938456,-0.6640458788,1.5574209085,159.6606852079
-87.6471733,41.86959875,1.3300377,8.749021,14-56-14-767,1500580574768,-1.6340008,0.1953099,-0.272336,264,-0.0013511104,-0.12834662,0.2083755,-0.4104500796,1.4258080724,158.4200906282
-87.6471733,41.86959875,1.3300377,8.749021,14-56-14-778,1500580574778,-1.534826,0.33984256,-0.36907318,270,-0.0013511104,-0.12834662,0.2083755,-0.5049111689,1.2608618854,158.2610291828
-87.6471733,41.86959875,1.3300377,8.749021,14-56-14-869,1500580574870,0.53178114,0.11025675,-0.4008023,331,-0.26500404,-0.21196988,0.0762827,-1.6428001941,0.2423825496,158.9420946657
-87.6471733,41.86959875,1.3300377,8.749021,14-56-14-878,1500580574879,0.53178114,0.11025675,-0.4008023,331,-0.26500404,-0.21196988,0.0762827,-1.6428001941,0.2423825496,158.9420946657
-87.6471733,41.86959875,1.3300377,8.749021,14-56-14-969,1500580574970,2.1779315,-0.06411149,-0.19382651,345,-0.28950512,0.20561379,0.09865326,-2.8084448669,-0.2755578989,159.4117657938
-87.6471733,41.86959875,1.3300377,8.749021,14-56-14-977,1500580574978,2.1779315,-0.06411149,-0.19382651,345,-0.28950512,0.20561379,0.09865326,-2.8084448669,-0.2755578989,159.4117657938
-87.6471733,41.86959875,1.3300377,8.749021,14-56-15-069,1500580575070,1.4867842,-1.0855733,1.2736838,359,0.030074192,0.3398371,-0.029711112,-1.2629973867,-0.4136583742,160.8328549525
-87.6471733,41.86959875,1.3300377,8.749021,14-56-15-078,1500580575079,1.4867842,-1.0855733,1.2736838,359,0.030074192,0.3398371,-0.029711112,-1.2629973867,-0.4136583742,160.8328549525
-87.6471733,41.86959875,1.3300377,8.749021,14-56-15-168,1500580575169,-0.48510858,-0.2414507,0.9050529,139,0.055107906,0.095358916,-0.062201682,1.2919270799,-0.5225470909,160.8625389546
-87.6471733,41.86959875,1.3300377,8.749021,14-56-15-179,1500580575180,-0.48510858,-0.2414507,0.9050529,139,0.055107906,0.095358916,-0.062201682,1.2919270799,-0.5225470909,160.8625389546
-87.64717439,41.86958682,1.3300377,10.059294,14-56-15-272,1500580575273,-1.6893876,-0.4393959,-0.5897384,163,-0.03650484,-0.31743106,-0.12398702,0.5457984422,0.0198084474,160.5734033867
-87.64717439,41.86958682,1.3300377,10.059294,14-56-15-280,1500580575280,-1.6893876,-0.4393959,-0.5897384,163,-0.03650484,-0.31743106,-0.12398702,0.5457984422,0.0198084474,160.5734033867
-87.64717439,41.86958682,1.3300377,10.059294,14-56-15-371,1500580575372,0.08269032,-0.16448587,-0.6613797,312,0.042324733,-0.19545828,0.06616269,-0.8405873791,0.4568861345,160.4787642855
-87.64717439,41.86958682,1.3300377,10.059294,14-56-15-381,1500580575382,0.08269032,-0.16448587,-0.6613797,312,0.042324733,-0.19545828,0.06616269,-0.8405873791,0.4568861345,160.4787642855
-87.64717439,41.86958682,1.3300377,10.059294,14-56-15-469,1500580575470,2.2814734,-0.58323634,0.18948913,330,0.33900088,0.24928963,-0.18950078,-1.920346105,0.3600257545,160.2779430636
-87.64717439,41.86958682,1.3300377,10.059294,14-56-15-481,1500580575482,2.2814734,-0.58323634,0.18948913,330,0.33900088,0.24928963,-0.18950078,-1.920346105,0.3600257545,160.2779430636
-87.64717439,41.86958682,1.3300377,10.059294,14-56-15-570,1500580575571,1.1247023,0.94676256,0.53827244,247,-0.36247575,0.04901991,0.08320692,0.0595831686,1.3026436467,159.3592689598
-87.64717439,41.86958682,1.3300377,10.059294,14-56-15-583,1500580575583,1.1247023,0.94676256,0.53827244,247,-0.29855987,0.08790206,0.1918639,0.0595831686,1.3026436467,159.3592689598
-87.64717439,41.86958682,1.3300377,10.059294,14-56-15-671,1500580575672,-0.36197218,0.24864057,1.270628,186,0.42581996,-0.07455077,-0.039831128,0.8826080369,0.4257477023,160.288502536
-87.64717439,41.86958682,1.3300377,10.059294,14-56-15-681,1500580575682,-0.36197218,0.24864057,1.270628,186,0.42581996,-0.07455077,-0.039831128,0.8826080369,0.4257477023,160.288502536
-87.64717439,41.86958682,1.3300377,10.059294,14-56-15-770,1500580575771,-1.8463899,0.6964664,-0.7429468,231,-0.002949007,-0.116628714,0.09758799,0.2521543358,0.8219281561,158.1494102314
-87.64717439,41.86958682,1.3300377,10.059294,14-56-15-781,1500580575782,-1.8463899,0.6964664,-0.7429468,231,-0.002949007,-0.116628714,0.09758799,0.2521543358,0.8219281561,158.1494102314
-87.64717439,41.86958682,1.3300377,10.059294,14-56-15-871,1500580575872,0.5496976,0.405517,-0.92988324,338,-0.12918285,-0.17947932,0.10664274,-0.9174087045,0.0149087988,158.5717891297
-87.64717439,41.86958682,1.3300377,10.059294,14-56-15-882,1500580575883,0.5496976,0.405517,-0.92988324,338,-0.12918285,-0.17947932,0.10664274,-0.9174087045,0.0149087988,158.5717891297
-87.64717439,41.86958682,1.3300377,10.059294,14-56-15-971,1500580575972,2.7572434,0.106858216,0.3368259,359,-0.1829787,-0.033005454,0.1604386,-1.73933574,-0.6429075105,159.1470686427
-87.64717439,41.86958682,1.3300377,10.059294,14-56-15-984,1500580575985,2.7572434,0.106858216,0.3368259,359,-0.35075784,0.09003259,0.17588493,-1.73933574,-0.6429075105,159.1470686427
-87.64717439,41.86958682,1.3300377,10.059294,14-56-16-072,1500580576074,2.133292,-1.3114642,0.70912105,25,0.016225753,0.16619901,-0.31466934,-0.9846065601,-0.9461451246,160.9460585078
-87.64717439,41.86958682,1.3300377,10.059294,14-56-16-082,1500580576082,2.133292,-1.3114642,0.70912105,25,0.016225753,0.16619901,-0.31466934,-0.9846065601,-0.9461451246,160.9460585078
-87.64717439,41.86958682,1.3300377,10.059294,14-56-16-171,1500580576174,-0.7513378,-0.009371424,0.8309819,197,0.0002467863,-0.050049685,0.04752056,0.4045691267,0.2949908543,160.4888593051
-87.64717439,41.86958682,1.3300377,10.059294,14-56-16-183,1500580576184,-0.7513378,-0.009371424,0.8309819,197,0.0002467863,-0.050049685,0.04752056,0.4045691267,0.2949908543,160.4888593051
-87.64717587,41.869575,1.35,11.359399,14-56-16-272,1500580576273,-1.9219393,-0.43472067,-0.88854057,326,-0.040233262,-0.18693615,-0.062201682,-0.3919398134,0.1009030916,160.8191262723
-87.64717587,41.869575,1.35,11.359399,14-56-16-282,1500580576283,-1.9219393,-0.43472067,-0.88854057,326,-0.040233262,-0.18693615,-0.062201682,-0.3919398134,0.1009030916,160.8191262723
-87.64717587,41.869575,1.35,11.359399,14-56-16-371,1500580576372,0.22272192,-0.6782945,-0.736889,327,0.0082362695,-0.19705617,0.0001162916,-1.5086899634,0.3597997446,160.7098295852
-87.64717587,41.869575,1.35,11.359399,14-56-16-384,1500580576386,0.22272192,-0.6782945,-0.736889,327,-0.002949007,-0.17734878,0.0022468206,-1.5086899634,0.3597997446,160.7098295852
-87.64717587,41.869575,1.35,11.359399,14-56-16-474,1500580576475,3.096028,-0.62883496,1.2557105,327,0.15151434,-0.28227735,-0.17139128,-2.4876808273,0.6108304876,160.9279585065
-87.64717587,41.869575,1.35,11.359399,14-56-16-481,1500580576482,3.096028,-0.62883496,1.2557105,327,0.15151434,-0.28227735,-0.17139128,-2.4876808273,0.6108304876,160.9279585065
-87.64717587,41.869575,1.35,11.359399,14-56-16-576,1500580576578,1.4541744,0.9653839,-0.22975889,310,0.27029133,0.17631902,-0.14262915,-2.9431043943,1.6443976046,158.9440480998
-87.64717587,41.869575,1.35,11.359399,14-56-16-585,1500580576587,1.4541744,0.9653839,-0.22975889,310,0.15151434,0.25568122,-0.12185649,-2.9431043943,1.6443976046,158.9440480998
-87.64717587,41.869575,1.35,11.359399,14-56-16-676,1500580576677,-0.8426061,0.11794074,0.9654552,287,-0.15261866,0.20028748,0.08001113,-1.4415371443,1.8472788757,158.7691269552
-87.64717587,41.869575,1.35,11.359399,14-56-16-682,1500580576683,-0.8426061,0.11794074,0.9654552,287,-0.15261866,0.20028748,0.08001113,-1.4415371443,1.8472788757,158.7691269552
-87.64717587,41.869575,1.35,11.359399,14-56-16-777,1500580576778,-1.5859989,-0.14745267,-0.5006563,285,0.019421548,-0.14752138,0.15351437,-1.1648802252,1.5955369926,158.7734436347
-87.64717587,41.869575,1.35,11.359399,14-56-16-784,1500580576787,-1.5859989,-0.14745267,-0.5006563,285,-0.06633224,-0.20824145,0.20571233,-1.1648802252,1.5955369926,158.7734436347
-87.64717587,41.869575,1.35,11.359399,14-56-16-879,1500580576880,-0.17222822,0.46533757,-0.8241473,323,-0.19096819,-0.06762655,0.10664274,-2.1398320995,0.6148144089,159.4021762082
-87.64717587,41.869575,1.35,11.359399,14-56-16-884,1500580576886,-0.17222822,0.46533757,-0.8241473,323,-0.20215346,-0.057506535,0.094392195,-2.1398320995,0.6148144089,159.4021762082
-87.64717587,41.869575,1.35,11.359399,14-56-16-977,1500580576978,2.6955686,0.1826013,1.079741,342,-0.09615965,-0.2274162,0.16310176,-2.6862557708,-0.0705668198,160.4170466962
-87.64717587,41.869575,1.35,11.359399,14-56-16-984,1500580576986,2.6955686,0.1826013,1.079741,342,-0.17605448,-0.15923928,0.13433962,-2.6862557708,-0.0705668198,160.4170466962
-87.64717587,41.869575,1.35,11.359399,14-56-17-079,1500580577080,1.289385,-0.90145934,-0.330765,352,-0.30601674,0.18963483,-0.07818064,-2.8434615392,-0.4993837316,162.4109428395
-87.64717587,41.869575,1.35,11.359399,14-56-17-085,1500580577087,1.289385,-0.90145934,-0.330765,352,-0.26660195,0.35581607,-0.08510486,-2.8434615392,-0.4993837316,162.4109428395
-87.64717587,41.869575,1.35,11.359399,14-56-17-178,1500580577178,-0.5421053,-0.10068795,1.6862301,65,0.17495015,0.3712624,0.094392195,-0.0304694739,-0.2123647619,163.3552984545
-87.64717587,41.869575,1.35,11.359399,14-56-17-183,1500580577184,-0.5421053,-0.10068795,1.6862301,65,0.17495015,0.3712624,0.094392195,-0.0304694739,-0.2123647619,163.3552984545
-87.64717684,41.86956388,1.33,12.587784,14-56-17-279,1500580577279,-0.7329025,-0.33771417,-0.4837538,127,-0.06100592,-0.2849405,-0.13250913,0.8320794713,-0.5954388697,162.7549658076
-87.64717684,41.86956388,1.33,12.587784,14-56-17-283,1500580577284,-0.7329025,-0.33771417,-0.4837538,127,-0.06100592,-0.2849405,-0.13250913,0.8320794713,-0.5954388697,162.7549658076
-87.64717684,41.86956388,1.33,12.587784,14-56-17-378,1500580577379,-0.17566037,-0.40131372,-0.4923446,325,0.21436495,-0.33554056,-0.08031117,-0.8108558858,0.2612886199,162.6025569665
-87.64717684,41.86956388,1.33,12.587784,14-56-17-384,1500580577385,-0.17566037,-0.40131372,-0.4923446,325,0.21649547,-0.3195616,-0.065930106,-0.8108558858,0.2612886199,162.6025569665
-87.64717684,41.86956388,1.33,12.587784,14-56-17-479,1500580577480,2.9872303,-0.2853291,1.1403794,322,0.2665629,-0.2881363,-0.19269657,-2.2220658696,0.7863796895,161.5719360622
-87.64717684,41.86956388,1.33,12.587784,14-56-17-487,1500580577488,2.9872303,-0.2853291,1.1403794,322,0.43753785,-0.028211765,-0.20334922,-2.2220658696,0.7863796895,161.5719360622
-87.64717684,41.86956388,1.33,12.587784,14-56-17-579,1500580577580,0.86671436,1.5031946,-1.6275681,303,-0.19842504,0.3366413,0.10025115,-2.0648272309,1.5584886592,159.7528927617
-87.64717684,41.86956388,1.33,12.587784,14-56-17-587,1500580577587,0.86671436,1.5031946,-1.6275681,303,-0.37046522,0.44636354,0.15777543,-2.0648272309,1.5584886592,159.7528927617
-87.64717684,41.86956388,1.33,12.587784,14-56-17-678,1500580577679,-0.4654109,-0.077324174,0.574495,193,0.22235443,0.14169793,0.03793318,2.4324487161,1.5358569341,160.9369743562
-87.64717684,41.86956388,1.33,12.587784,14-56-17-687,1500580577694,-0.8452017,-0.0024714218,-0.13840805,190,0.2766829,0.09163049,0.03420475,2.6142431654,1.4893155982,160.7394043043
-87.64717684,41.86956388,1.33,12.587784,14-56-17-779,1500580577780,-1.2228522,0.4422898,-0.8313939,186,-0.15528183,-0.2322099,0.20145127,2.3741735421,1.1437620273,160.076630068
-87.64717684,41.86956388,1.33,12.587784,14-56-17-787,1500580577788,-1.2228522,0.4422898,-0.8313939,186,-0.14729235,-0.20770882,0.17748283,2.3741735421,1.1437620273,160.076630068
-87.64717684,41.86956388,1.33,12.587784,14-56-17-880,1500580577881,0.554335,0.21854055,-1.0874665,176,-0.10787756,-0.1677614,0.07521744,1.0881896873,0.2992039605,160.5976915394
-87.64717684,41.86956388,1.33,12.587784,14-56-17-887,1500580577890,1.1535096,0.19664425,-0.18119307,174,-0.17339133,-0.27375522,0.09013114,0.8907608282,0.2130939914,160.6805144133
-87.64717684,41.86956388,1.33,12.587784,14-56-17-981,1500580577982,2.0084648,-0.73830724,-0.4158794,347,-0.20162083,-0.032472823,-0.01000372,-0.8135813981,-0.0813814038,161.1844594306
-87.64717684,41.86956388,1.33,12.587784,14-56-17-987,1500580577989,2.0084648,-0.73830724,-0.4158794,347,-0.21387137,0.1379695,-0.022786895,-0.8135813981,-0.0813814038,161.1844594306
-87.64717684,41.86956388,1.33,12.587784,14-56-18-080,1500580578081,0.95637316,-0.8905294,-0.45615295,231,0.12008903,0.5960332,-0.21559976,0.2144240506,0.5738843935,161.7290304131
-87.64717684,41.86956388,1.33,12.587784,14-56-18-089,1500580578090,0.462364,-0.9270339,0.29283145,206,0.1573733,0.5614121,-0.14529231,0.8673168975,0.8422908176,161.5982732716
-87.64717684,41.86956388,1.33,12.587784,14-56-18-180,1500580578181,-1.0440696,-0.34528717,-0.36240622,182,-0.16114078,0.071390465,0.057107937,2.7288759378,1.0475167645,161.2580342283
-87.64717684,41.86956388,1.33,12.587784,14-56-18-191,1500580578192,-1.1260717,-0.45361584,-0.69409144,180,-0.17552185,-0.014363325,-0.016927939,2.8455677988,0.9619741947,161.4099376355
-87.64717746,41.86955291,1.35,13.80242,14-56-18-282,1500580578282,-1.4396302,-0.7383636,-0.6481928,191,0.09771848,-0.26043943,-0.12984598,2.3580404218,1.3447415176,161.7569385661
-87.64717746,41.86955291,1.35,13.80242,14-56-18-289,1500580578290,-1.2916778,-0.8207101,-0.8997655,198,0.11316481,-0.22155726,-0.0973554,2.0745666538,1.5098249487,161.6625863329
-87.64717746,41.86955291,1.35,13.80242,14-56-18-379,1500580578380,0.8094004,-0.63645196,-0.85588115,230,0.21915863,-0.3259532,-0.087768026,0.7628658561,1.94430278,160.9787204724
-87.64717746,41.86955291,1.35,13.80242,14-56-18-390,1500580578391,1.2703627,-0.81177473,-0.9580672,241,0.12754588,-0.23966675,-0.11173648,0.3583413925,2.0431896185,160.7342816624
-87.64717746,41.86955291,1.35,13.80242,14-56-18-480,1500580578480,2.1356819,-0.4127964,0.27584088,267,0.41303676,0.01546408,-0.1900334,-0.7799838576,2.6103384317,160.1911996611
-87.64717746,41.86955291,1.35,13.80242,14-56-18-493,1500580578493,1.4665878,0.13207681,-0.5676042,268,0.23034391,0.20667906,-0.1618039,-0.9070118759,2.8258370898,159.7424015911
-87.64717746,41.86955291,1.35,13.80242,14-56-18-579,1500580578580,0.77161026,0.58197004,-0.16290386,252,-0.14569445,0.16619901,0.08267429,-0.1750989964,3.2585782389,159.3545288085
-87.64717746,41.86955291,1.35,13.80242,14-56-18-591,1500580578592,0.023264354,0.43718675,-0.18340333,249,-0.22505665,0.26260543,0.13220909,0.0004712831,3.1926120584,159.4879907049
-87.64717746,41.86955291,1.35,13.80242,14-56-18-680,1500580578681,-0.78654754,-0.10047788,-0.08262117,230,0.16323225,0.03996516,-0.0062752953,1.0047860339,2.7506695774,160.0784195775
-87.64717746,41.86955291,1.35,13.80242,14-56-18-692,1500580578692,-1.2487162,-0.08391076,-0.72517943,229,0.1525796,0.015996711,0.029411064,1.0645462404,2.7556953159,159.9242758683
-87.64717746,41.86955291,1.35,13.80242,14-56-18-781,1500580578782,-1.404741,0.13833071,-1.0562166,229,-0.16540185,-0.11929187,0.1870702,0.8936230509,2.2989560838,159.7753367633
-87.64717746,41.86955291,1.35,13.80242,14-56-18-793,1500580578794,-0.96603036,0.22246589,-0.7581945,230,-0.10255124,-0.11503082,0.1572428,0.7607005261,2.0766701386,159.9703113434
-87.64717746,41.86955291,1.35,13.80242,14-56-18-882,1500580578883,0.7806319,0.16524443,-1.2603751,245,-0.03650484,-0.1363361,0.101316415,0.1268298894,1.4868670821,160.1883992836
-87.64717746,41.86955291,1.35,13.80242,14-56-18-894,1500580578895,1.1524826,0.24316762,-1.080994,251,-0.009873226,-0.0585718,0.10504484,-0.0305309456,1.3768887634,160.2297082677
-87.64717746,41.86955291,1.35,13.80242,14-56-18-981,1500580578982,3.0412438,-0.40076166,-0.30323008,278,-0.18830502,-0.08200762,0.10504484,-0.4137867071,0.7794885088,160.0825450118
-87.64717746,41.86955291,1.35,13.80242,14-56-18-993,1500580578993,1.9385328,-1.0681738,-0.80897236,291,-0.35768205,0.04635675,0.08959851,-0.5584792754,0.6476830934,160.1869376231
-87.64717746,41.86955291,1.35,13.80242,14-56-19-081,1500580579082,1.3008119,-1.2755336,-0.060697876,266,0.07747845,-0.014895958,-0.21506713,-0.150257505,0.5664644069,161.171946524
-87.64717746,41.86955291,1.35,13.80242,14-56-19-094,1500580579095,0.60777867,-1.1092085,-0.8189788,262,0.041792102,0.043160953,-0.26460192,-0.1484611519,0.7681605867,161.0879351972
-87.64717746,41.86955291,1.35,13.80242,14-56-19-180,1500580579181,-1.0130801,-0.24274981,-0.17094396,234,-0.11853021,0.12891474,0.017693156,0.4717972379,1.5435201929,160.9755512646
-87.64717746,41.86955291,1.35,13.80242,14-56-19-192,1500580579193,-1.1208892,-0.19098523,-0.5668588,228,-0.19043556,0.069259934,0.046455294,0.670101215,1.5484285376,161.0591664405
-87.64717807,41.86954255,1.2903488,14.950171,14-56-19-280,1500580579281,-1.1639594,-0.5558988,-0.30857956,223,0.011964695,-0.14379296,-0.100551195,0.8393988195,1.5122719707,161.6475052752
-87.64717807,41.86954255,1.2903488,14.950171,14-56-19-296,1500580579299,-1.2951787,-0.6776666,-0.66318214,228,0.038596306,-0.14006452,-0.06486484,0.7157814668,1.6211703724,161.6519175774
-87.64717807,41.86954255,1.2903488,14.950171,14-56-19-381,1500580579382,0.66150224,-0.8352619,-1.0406483,257,0.28041136,-0.2322099,-0.048885874,-0.1697372845,1.6212869125,161.024018287
-87.64717807,41.86954255,1.2903488,14.950171,14-56-19-394,1500580579395,1.2007538,-0.64649296,-0.74945396,265,0.23087654,-0.26949418,-0.09575751,-0.4253812467,1.6701221247,160.69519932
-87.64717807,41.86954255,1.2903488,14.950171,14-56-19-481,1500580579482,2.1792927,0.010428132,0.7930636,290,-0.029580617,-0.40318486,0.07894586,-1.566060244,1.9042699741,160.3517364274
-87.64717807,41.86954255,1.2903488,14.950171,14-56-19-494,1500580579496,2.1676183,-0.12230531,0.4602754,298,0.2367355,-0.17521825,0.064564794,-1.989227709,1.8140702825,160.4791604365
-87.64717807,41.86954255,1.2903488,14.950171,14-56-19-581,1500580579582,1.3027494,0.7780436,-1.0730982,301,0.4780179,0.14649162,-0.010536352,-1.9359005801,1.5236348441,158.7939751834
-87.64717807,41.86954255,1.2903488,14.950171,14-56-19-596,1500580579596,0.5601506,0.8407187,-1.7933394,298,0.30810824,0.29988968,-0.014264778,-1.8059995602,1.5192801717,158.1980548387
-87.64717807,41.86954255,1.2903488,14.950171,14-56-19-682,1500580579683,-0.54546994,0.06467136,0.73031527,280,-0.20375136,0.2903023,0.024084741,-1.1970333407,1.9253129332,158.0180383729
-87.64717807,41.86954255,1.2903488,14.950171,14-56-19-693,1500580579694,-0.54546994,0.06467136,0.73031527,280,0.017823651,0.16140531,-0.039298493,-1.1970333407,1.9253129332,158.0180383729
-87.64717807,41.86954255,1.2903488,14.950171,14-56-19-781,1500580579782,-1.1894213,-0.09917997,-0.62363386,258,-0.06579962,-0.15817402,0.11356696,-0.3772852957,2.095582719,157.7870550355
-87.64717807,41.86954255,1.2903488,14.950171,14-56-19-796,1500580579799,-0.98556095,0.2532791,-0.4553428,262,-0.1515534,-0.2700268,0.18067862,-0.4975855243,2.0153239408,157.7863310355
-87.64717807,41.86954255,1.2903488,14.950171,14-56-19-881,1500580579882,0.09980628,0.2401212,-0.9002854,303,-0.09083333,-0.31210476,0.06190163,-1.8212863773,1.3105589821,158.5543311661
-87.64717807,41.86954255,1.2903488,14.950171,14-56-19-894,1500580579895,0.4396702,0.07843551,-0.7518943,309,-0.1515534,-0.29559314,0.053912144,-2.1903912942,1.2318837406,158.6811814394
-87.64717807,41.86954255,1.2903488,14.950171,14-56-19-982,1500580579983,2.4850965,-0.2180178,-0.08347965,324,-0.2010882,0.031443045,0.09226167,-3.4654796099,0.9709865226,159.4625004389
-87.64717807,41.86954255,1.2903488,14.950171,14-56-19-994,1500580579995,2.4850965,-0.2180178,-0.08347965,324,-0.3417031,0.33238024,0.101316415,-3.4654796099,0.9709865226,159.4625004389
-87.64717807,41.86954255,1.2903488,14.950171,14-56-20-082,1500580580083,1.896811,-0.8677992,1.0194238,317,0.32515246,0.20188537,-0.2113387,-2.1407514003,0.9400182315,160.2657989872
-87.64717807,41.86954255,1.2903488,14.950171,14-56-20-095,1500580580095,1.1724513,-0.80722,0.4021716,309,0.28360716,0.20880958,-0.22092608,-1.9199975519,1.1499908397,159.9232923211
-87.64717807,41.86954255,1.2903488,14.950171,14-56-20-183,1500580580183,-0.8003116,-0.32650357,-0.26656246,275,-0.31986517,0.100152604,-0.08830065,-0.9890434083,2.082550718,159.5136039143
-87.64717807,41.86954255,1.2903488,14.950171,14-56-20-193,1500580580195,-0.8003116,-0.32650357,-0.26656246,270,-0.2511556,0.026649356,-0.038765863,-0.9890434083,2.082550718,159.5136039143
-87.64717903,41.86953243,1.320341,16.070986,14-56-20-283,1500580580283,-1.505693,-0.40978995,-0.4289368,271,0.16163434,-0.14911927,-0.083506964,-0.9316788906,2.4357703224,160.2023055487
-87.64717903,41.86953243,1.320341,16.070986,14-56-20-294,1500580580295,-1.528755,-0.47707573,-0.62551254,274,0.16962384,-0.094790794,-0.07125642,-1.102361476,2.5241469939,160.0220841773
-87.64717903,41.86953243,1.320341,16.070986,14-56-20-383,1500580580385,0.46767917,-0.5164606,-0.34117228,286,0.15471013,-0.3904017,0.11569749,-1.9610365301,2.6459467691,159.0616502969
-87.64717903,41.86953243,1.320341,16.070986,14-56-20-394,1500580580394,0.83018994,-0.43284637,-0.38441184,292,0.057771068,-0.42449015,0.10025115,-2.3885703002,2.5278271852,158.8578647729
-87.64717903,41.86953243,1.320341,16.070986,14-56-20-484,1500580580485,2.436304,-0.8531232,0.27213043,308,0.14885117,-0.05590864,-0.114399634,-4.0604962352,2.4427953854,159.0794361095
-87.64717903,41.86953243,1.320341,16.070986,14-56-20-493,1500580580497,1.5660187,-0.47745636,0.14033018,308,0.30171663,0.23011488,-0.04355955,-4.2669920637,2.5701566422,159.0436049371
-87.64717903,41.86953243,1.320341,16.070986,14-56-20-593,1500580580594,0.073729105,0.8116621,-0.83000624,299,-0.24795984,0.40535086,0.08693535,-2.9814968876,2.3897425314,157.7559366937
-87.64717903,41.86953243,1.320341,16.070986,14-56-20-594,1500580580595,0.073729105,0.8116621,-0.83000624,299,-0.24795984,0.40535086,0.08693535,-2.9814968876,2.3897425314,157.7559366937
-87.64717903,41.86953243,1.320341,16.070986,14-56-20-690,1500580580693,-0.6208627,-0.15375781,0.5232209,255,0.22714812,-0.06922445,-0.07818064,-0.2456314251,2.044196858,158.5746578091
-87.64717903,41.86953243,1.320341,16.070986,14-56-20-695,1500580580698,-0.6208627,-0.15375781,0.5232209,255,0.22714812,-0.06922445,-0.07818064,-0.2456314251,2.044196858,158.5746578091
-87.64717903,41.86953243,1.320341,16.070986,14-56-20-793,1500580580793,-1.1855829,0.14648154,-0.57714546,269,-0.11799757,-0.27961418,0.124219604,-0.8365059142,2.1279851364,158.0275050151
-87.64717903,41.86953243,1.320341,16.070986,14-56-20-795,1500580580796,-1.1855829,0.14648154,-0.57714546,269,-0.11799757,-0.27961418,0.124219604,-0.8365059142,2.1279851364,158.0275050151
-87.64717903,41.86953243,1.320341,16.070986,14-56-20-889,1500580580890,-0.1049453,0.29011467,-1.0642611,300,-0.2825809,-0.22102462,0.044857398,-2.1579244168,1.7321611598,158.8780821328
-87.64717903,41.86953243,1.320341,16.070986,14-56-20-896,1500580580897,0.28970125,0.1910297,-0.5330779,304,-0.2591451,-0.24765624,0.04858582,-2.3937110847,1.6895404593,159.1912599666
-87.64717903,41.86953243,1.320341,16.070986,14-56-20-994,1500580580994,2.339385,-0.1855247,-1.3223939,318,-0.52759176,0.30734652,0.2813461,-3.4889571045,1.3697021238,159.7540129127
-87.64717903,41.86953243,1.320341,16.070986,14-56-20-996,1500580580997,2.339385,-0.1855247,-1.3223939,318,-0.52759176,0.30734652,0.2813461,-3.4889571045,1.3697021238,159.7540129127
-87.64717903,41.86953243,1.320341,16.070986,14-56-21-090,1500580581091,2.3131335,-1.5740788,0.56540555,340,0.18027648,0.4591467,-0.06539747,-2.3783367558,0.0516158129,161.2909830609
-87.64717903,41.86953243,1.320341,16.070986,14-56-21-095,1500580581096,1.5248421,-1.3158113,0.45920885,343,0.18027648,0.4591467,-0.06539747,-1.972623946,-0.0526390206,161.1622749762
-87.64717903,41.86953243,1.320341,16.070986,14-56-21-193,1500580581194,-1.2171104,-0.30447677,-0.2618439,191,-0.250623,-0.0106349,-0.016927939,0.4337928647,0.2517927093,160.586449048
-87.64717903,41.86953243,1.320341,16.070986,14-56-21-196,1500580581197,-1.2171104,-0.30447677,-0.2618439,191,-0.250623,-0.0106349,-0.016927939,0.4337928647,0.2517927093,160.586449048
-87.64717984,41.86952181,1.3000385,17.248396,14-56-21-292,1500580581293,-1.4860071,-0.7408599,-0.62475616,231,-0.11054072,-0.21782883,-0.22252397,0.2094789537,0.5441986305,161.8310870997
-87.64717984,41.86952181,1.3000385,17.248396,14-56-21-299,1500580581299,-1.1812475,-0.846309,-0.28760016,248,-0.11054072,-0.21782883,-0.22252397,0.0595285271,0.7720622789,162.0988031944
-87.64717984,41.86952181,1.3000385,17.248396,14-56-21-394,1500580581395,0.41650724,-0.4241105,-0.52269703,284,0.06309739,-0.20504566,-0.10001857,-1.0329512794,1.6768195521,162.2681918858
-87.64717984,41.86952181,1.3000385,17.248396,14-56-21-397,1500580581398,0.33262685,-0.36629197,-1.0258723,290,0.06309739,-0.20504566,-0.10001857,-1.4316336901,1.8383227901,162.1496881037
-87.64717984,41.86952181,1.3000385,17.248396,14-56-21-492,1500580581493,1.7434263,-0.5990592,0.16123924,297,0.1557754,0.30468336,-0.12025859,-2.3063854086,2.3276208937,161.9656008452
-87.64717984,41.86952181,1.3000385,17.248396,14-56-21-499,1500580581500,1.7282007,-0.19762345,-0.22973351,295,0.1557754,0.30468336,-0.12025859,-2.2915143793,2.467838274,161.7308745642
