Longitude,Latitude,Speed,Distance,Time,Time in epoch, Acc X,Acc Y,Acc Z,Heading,gyro_x,gyro_y,gyro_z,pitch_deg,roll_deg,azimuth_deg
-87.64713425,41.86969435,0.0,9815986.0,14-52-23-463,1501876343464,0.10947081,0.019355467,0.3891909,346.0,0.010298977,0.009675442,-0.030878466,-3.438653188114219,-1.3009975710745154,145.31025285602698
-87.64713139,41.86969337,0.0,0.0,14-52-23-565,1501876343566,0.08974371,0.08057894,0.3894843,339.0,0.029473737,-0.018021433,-0.0058447504,-2.7212653995396745,-0.6906395404851582,144.77330436461557
-87.64713139,41.86969337,0.0,0.0,14-52-23-665,1501876343666,0.08089441,0.06312636,0.3510588,340.0,-0.013136841,0.008077546,0.025580551,-2.7090118267252596,-0.7315994378857842,144.7329652673775
-87.64713139,41.86969337,0.0,0.0,14-52-23-766,1501876343766,0.03843713,0.018409189,0.44458136,343.0,-0.003549461,8.806237E-5,0.0181237,-2.6381159572444086,-0.8652420141157213,144.6421237514163
-87.64713139,41.86969337,0.0,0.0,14-52-23-869,1501876343870,0.0694122,-0.0021594954,0.3640839,345.0,0.010831609,-0.0063035246,0.0058731586,-2.6435483055120956,-0.9792719689482313,144.64257454390156
-87.64713139,41.86969337,0.0,0.0,14-52-23-968,1501876343972,0.07443432,0.038558025,0.37360102,346.0,0.001244229,-0.00523826,0.005340526,-2.639746664908749,-1.0141400846611464,144.57119906707487
-87.64713231,41.86969434,0.0,0.13206519,14-52-24-102,1501876344102,0.06409661,0.0065563843,0.3348278,346.0,0.012962138,8.806237E-5,-0.006910015,-2.642758564889313,-1.0297686246991933,144.58412178498452
-87.64713231,41.86969434,0.0,0.13206519,14-52-24-167,1501876344167,-0.029640356,-0.0038312413,0.3229729,345.0,-0.00567999,0.0150017645,-0.010105809,-2.6017413579326822,-0.9614580885408975,144.53650170609126
-87.64713231,41.86969434,0.0,0.13206519,14-52-24-268,1501876344269,0.14672545,0.009314822,0.31847003,345.0,-3.5366768E-4,0.05175339,-0.0053121187,-2.4570427331489046,-0.9288390260556207,144.60095137109943
-87.64713231,41.86969434,0.0,0.13206519,14-52-24-368,1501876344369,0.13305476,0.010665711,0.4745376,345.0,0.014027402,-0.07394782,1.4203833E-5,-2.467581288151411,-0.8964866611130917,144.5524706883707
-87.64713231,41.86969434,0.0,0.13206519,14-52-24-473,1501876344473,-0.10124832,0.09726365,0.23687203,346.0,0.041191645,0.047492333,0.02291739,-2.5783377147416338,-0.9959077484454436,144.49067113676045
-87.64713231,41.86969434,0.0,0.13206519,14-52-24-569,1501876344570,0.15237133,0.044850193,0.3574785,348.0,-0.0339095,0.025121778,0.0032099972,-2.345964860780868,-1.0075808619021127,144.34350788090336
-87.64713231,41.86969434,0.0,0.13206519,14-52-24-670,1501876344671,0.20584282,0.025563596,0.43263602,350.0,0.05397482,-0.030804604,-0.012236338,-2.2155140106057365,-1.0832337446964664,144.33334455941838
-87.64713231,41.86969434,0.0,0.13206519,14-52-24-771,1501876344772,0.011819073,0.0015827753,0.52050465,346.0,0.020418989,-0.04625094,-0.016497396,-2.4378836256401955,-0.9605746462604388,144.05508265263205
-87.64713231,41.86969434,0.0,0.13206519,14-52-24-870,1501876344871,-2.9024293E-4,0.0051744655,0.020131266,344.0,0.008168448,0.030980732,0.0080036875,-2.5155403151823017,-0.9362460460453822,143.9040808304614
-87.64713231,41.86969434,0.0,0.13206519,14-52-24-970,1501876344971,0.14381456,-0.10164907,0.30079967,349.0,-0.005147358,0.04482917,0.010134216,-2.2707273388654157,-1.0574438041641445,144.14234514946816
-87.64713497,41.86969734,0.0,0.53176266,14-52-25-070,1501876345071,0.084002286,-0.050606944,0.28128475,350.0,0.045985337,0.011273338,-0.037270054,-1.994780652764319,-0.9542926864930252,144.0271881600617
-87.64713497,41.86969734,0.0,0.53176266,14-52-25-170,1501876345171,0.19597723,-0.03452971,0.25215742,349.0,-0.017930532,0.024056513,-0.017030027,-1.812149718651229,-0.8556095797561521,143.91406656702793
-87.64713497,41.86969734,0.0,0.53176266,14-52-25-271,1501876345271,0.064543836,0.05844458,0.42445016,349.0,-0.008343151,-0.00523826,-0.019693188,-1.6139583329483804,-0.7659703905323164,143.99743585603716
-87.64713497,41.86969734,0.0,0.53176266,14-52-25-370,1501876345371,0.15448101,0.094373286,0.29704595,350.0,0.0055052866,0.04003548,-0.013834234,-1.501491797744716,-0.7312651855032767,144.00814559265575
-87.64713497,41.86969734,0.0,0.53176266,14-52-25-476,1501876345477,0.2218908,0.2433314,0.76572764,351.0,0.13546756,-0.008966685,-0.04312901,-1.2096856258342612,-0.6182614132327082,143.5109351418355
-87.64713497,41.86969734,0.0,0.53176266,14-52-25-571,1501876345572,-0.06384595,-0.035204083,0.13598916,349.0,-0.13084856,8.806237E-5,0.09162695,-1.3518813064523467,-0.6530783558877011,143.28025233280744
-87.64713497,41.86969734,0.0,0.53176266,14-52-25-672,1501876345673,0.077822134,-0.18192822,0.30467397,0.0,-0.0637369,0.00434912,-0.03620479,-1.3124365371087,-0.9340227127488373,144.1214584309862
-87.64713497,41.86969734,0.0,0.53176266,14-52-25-775,1501876345776,-0.119249396,0.11639935,0.13814825,355.0,0.006037919,0.06506919,-0.0095731765,-1.141471886263109,-0.6731856857522781,144.0559842376025
-87.64713497,41.86969734,0.0,0.53176266,14-52-25-872,1501876345873,0.1854764,0.3147227,0.5836747,3.0,1.7896455E-4,0.026187042,-0.047922697,-0.7140122877423831,-0.5754960513745245,144.15395647105714
-87.64713497,41.86969734,0.0,0.53176266,14-52-25-973,1501876345974,-0.008898848,0.16439955,0.45048535,358.0,0.031071633,0.021393351,0.005340526,-0.6145614784149711,-0.4198881737432082,144.08292250368902
-87.64713984,41.86969939,0.0,0.9691291,14-52-26-078,1501876346078,0.05670788,0.108346805,0.27933142,3.0,0.022016887,0.03790495,-0.021823717,-0.46068073150916883,-0.3735321334135812,143.78589123706354
-87.64713984,41.86969939,0.0,0.9691291,14-52-26-172,1501876346175,0.015994199,0.052109327,0.2639908,12.0,-0.00567999,0.0070122816,0.031439506,-0.33301798589757786,-0.3750051864380561,143.7695534245688
-87.64713984,41.86969939,0.0,0.9691291,14-52-26-275,1501876346276,0.040471327,0.03417141,0.29387203,33.0,-0.053084258,0.01606703,0.028776344,-0.2188090587644724,-0.5822401161279717,143.91352015189437
-87.64713984,41.86969939,0.0,0.9691291,14-52-26-375,1501876346375,0.06820713,0.098740205,0.29607803,45.0,0.023614783,-0.0015098343,0.0058731586,-0.10886986697648436,-0.6997425284623455,144.01538559317595
-87.64713984,41.86969939,0.0,0.9691291,14-52-26-473,1501876346475,0.082283124,0.024303967,0.37826145,49.0,-0.044562142,0.015534396,0.026645815,-0.0746505725439742,-0.763672565485136,144.10158258050149
-87.64713984,41.86969939,0.0,0.9691291,14-52-26-573,1501876346574,0.0870938,0.042805675,0.2936036,50.0,-0.036040027,0.0032838557,0.015460538,-0.06541273502142533,-0.8659631326816866,144.3504336927217
-87.64713984,41.86969939,0.0,0.9691291,14-52-26-673,1501876346674,0.06160738,0.074074656,0.30753627,47.0,-0.030713705,-0.030271973,0.01119948,-0.121297422851749,-0.9645900504404658,144.48605392888152
-87.64713984,41.86969939,0.0,0.9691291,14-52-26-818,1501876346819,0.07359305,0.029083155,0.3373056,45.0,-0.046692673,0.001685959,0.02291739,-0.21405520708150386,-1.1987290419102086,145.00430136234542
-87.64713984,41.86969939,0.0,0.9691291,14-52-26-876,1501876346877,0.06668236,0.08710814,0.2196384,47.0,-0.03870319,0.021393351,0.029308977,-0.18093201793854188,-1.2897916852457574,145.13152046582604
-87.64713984,41.86969939,0.0,0.9691291,14-52-27-111,1501876347112,0.05471911,0.021292629,0.31233305,50.0,-0.042964246,-0.023347754,-0.013834234,-0.1524021843732664,-1.432779881250976,145.81352851483018
-87.64714147,41.86970046,0.0,1.1491039,14-52-27-239,1501876347248,0.08759722,0.08666218,0.296783,49.0,-0.023789486,0.0304481,0.019721596,-0.16810144088160683,-1.4669020122404788,146.02134385051698
-87.64714147,41.86970046,0.0,1.1491039,14-52-27-250,1501876347250,0.1322477,0.06764371,0.3742108,51.0,-0.023789486,0.0304481,0.019721596,-0.1351490731689613,-1.5000167970491105,146.05389653210125
-87.64714147,41.86970046,0.0,1.1491039,14-52-27-349,1501876347350,-0.047885783,0.006956212,0.20874214,52.0,-0.030713705,0.011805971,0.0042752614,-0.10593287896327226,-1.5064275699154022,146.1893391833426
-87.64714147,41.86970046,0.0,1.1491039,14-52-27-450,1501876347450,0.11639437,0.04977952,0.33096248,56.0,0.022016887,0.010208075,-0.010105809,-0.016016793603679903,-1.515638720341399,146.25847435812148
-87.64714147,41.86970046,0.0,1.1491039,14-52-27-550,1501876347550,0.024347384,0.12072061,0.28420964,57.0,0.008168448,0.0048817527,-0.010638441,0.01776190693661816,-1.4490630522322865,146.15532484127596
-87.64714147,41.86970046,0.0,1.1491039,14-52-27-650,1501876347650,0.10010591,0.047228657,0.35909772,58.0,0.022549517,0.001685959,-0.006910015,0.05368529354640683,-1.4035723915344147,146.05317253204925
-87.64714147,41.86970046,0.0,1.1491039,14-52-27-750,1501876347750,0.10676742,0.011427748,0.33333036,57.0,-0.009941048,-0.007368789,0.02345002,0.02891560585124898,-1.4723582661702612,146.05869132489863
-87.64714147,41.86970046,0.0,1.1491039,14-52-27-850,1501876347850,0.21458028,0.08484423,0.44442457,52.0,-0.030181073,-0.077676244,0.0021447327,-0.1093206594617052,-1.5557063175599863,146.13171970750437
-87.64714147,41.86970046,0.0,1.1491039,14-52-27-950,1501876347951,-0.045391105,0.006888599,0.09594816,44.0,-0.029115807,0.0027512235,0.012264745,-0.3752327971560615,-1.6845351045289454,146.40715391597433
-87.64714147,41.86970046,0.0,1.1491039,14-52-28-052,1501876348053,0.11186142,-0.042105336,0.3167572,47.0,0.011896873,0.026719674,0.0058731586,-0.2855713831369967,-1.7361438004541503,146.44579912629825
-87.64713898,41.86969916,0.0,0.900348,14-52-28-163,1501876348164,0.019164503,-0.028390907,0.19108288,48.0,-0.0030168288,-0.007368789,0.015460538,-0.2690148178259007,-1.8036943713455762,146.44885905104638
-87.64713898,41.86969916,0.0,0.900348,14-52-28-251,1501876348251,0.122217834,-0.03255642,0.2872328,42.0,-0.014202106,0.01606703,-0.009040544,-0.43789452674691876,-1.700782523738819,146.54031528403289
-87.64713898,41.86969916,0.0,0.900348,14-52-28-350,1501876348351,-0.07340476,0.08578266,0.09409838,44.0,0.009233712,0.05015549,0.04475531,-0.39841838122177226,-1.7338958144435697,146.52808924541853
-87.64713898,41.86969916,0.0,0.900348,14-52-28-451,1501876348452,0.07159532,0.15333353,0.3360581,52.0,-0.016332634,0.00914281,5.4683606E-4,-0.14771324616783943,-1.997832039776022,146.54194086905534
-87.64713898,41.86969916,0.0,0.900348,14-52-28-551,1501876348552,0.08029593,-0.07585334,0.29025048,51.0,0.025745312,0.03524179,-0.010105809,-0.20179493748005162,-1.8996508452214391,146.67002057637143
-87.64713898,41.86969916,0.0,0.900348,14-52-28-652,1501876348652,0.17960732,0.18802358,0.33844438,50.0,0.05610535,-0.042522516,-0.03886795,-0.19354061384745155,-1.750827533230914,146.31230990915952
-87.64713898,41.86969916,0.0,0.900348,14-52-28-752,1501876348752,0.07069099,0.08571493,0.16863813,41.0,0.026810575,-0.06222991,-0.026617408,-0.43855366668225143,-1.6266692082720684,146.1541910298737
-87.64713898,41.86969916,0.0,0.900348,14-52-28-852,1501876348853,-0.06508781,-0.026274668,0.13701025,34.0,-0.017930532,0.061873402,0.03996162,-0.6234173522824216,-1.5200143102784385,146.07629955257892
-87.64713898,41.86969916,0.0,0.900348,14-52-28-953,1501876348954,-0.10337405,0.03451031,0.3192565,44.0,0.06729063,0.040568113,5.4683606E-4,-0.3439567206163384,-1.648632962208714,146.11688453662714
-87.64713898,41.86969916,0.0,0.900348,14-52-29-052,1501876349053,0.2569576,0.0052910605,0.38497654,52.0,-0.03444213,0.03524179,-0.025019512,-0.10336472116524086,-1.5298307862196276,145.90501206857334
-87.64713898,41.86969916,0.0,0.900348,14-52-29-154,1501876349155,0.041101947,0.006875834,0.13878687,51.0,0.028941104,0.031513363,-0.08041326,-0.11086086711954307,-1.2114863411759116,145.78458217312766
-87.64713525,41.86969693,0.0,0.508962,14-52-29-255,1501876349255,-0.051358737,0.11117963,0.15655485,46.0,-0.0067452546,-0.03133724,-0.031411096,-0.12863988954972594,-0.7729962539498794,145.59152004604812
-87.64713525,41.86969693,0.0,0.508962,14-52-29-354,1501876349355,0.02234869,0.07551316,0.21699321,42.0,-0.02219159,0.043763906,0.019188963,-0.17534148142246,-0.7352269086652956,145.78706836198558
-87.64713525,41.86969693,0.0,0.508962,14-52-29-454,1501876349455,0.09123216,-0.024028737,0.32046372,61.0,-0.023256853,0.041100744,0.01119948,0.07043634582607633,-0.8206400250618918,145.88351063306612
-87.64713525,41.86969693,0.0,0.508962,14-52-29-555,1501876349558,0.1789876,0.05341092,0.31793335,70.0,0.003374758,0.012871236,0.002677365,0.20892229323981282,-0.8397528153502916,145.99518422599584
-87.64713525,41.86969693,0.0,0.508962,14-52-29-657,1501876349657,0.07926896,0.0782593,0.34036085,71.0,-0.0339095,-0.0047056274,0.015460538,0.23417026092953686,-0.8956951062213108,146.0821325341301
-87.64713525,41.86969693,0.0,0.508962,14-52-29-755,1501876349760,0.062396776,0.047126856,0.1393684,71.0,-0.017930532,0.021393351,-0.0010510606,0.2421582472051461,-0.9347219533651173,146.21149631701013
-87.64713525,41.86969693,0.0,0.508962,14-52-29-856,1501876349856,0.15529232,0.0655889,0.41109636,78.0,-0.007277887,-0.010564582,-0.007975279,0.39202860585109306,-0.9664155252178575,146.40574689700532
-87.64713525,41.86969693,0.0,0.508962,14-52-29-959,1501876349959,0.031521257,0.13630159,0.18539059,71.0,-0.021658957,-0.020151962,5.4683606E-4,0.22089910999070952,-0.8398165815694959,146.4331359555771
-87.64713525,41.86969693,0.0,0.508962,14-52-30-058,1501876350059,0.009554633,0.0656056,0.2384498,64.0,0.012962138,-0.035065666,0.013330009,0.10993537648700635,-0.8935990919197631,146.488897619961
-87.64713289,41.86969422,0.0,0.15627168,14-52-30-159,1501876350160,0.11301633,0.12399319,0.11046568,55.0,-0.02964844,0.0304481,-0.0053121187,-0.027908154616198753,-0.9926881680254288,146.45943218388163
-87.64713289,41.86969422,0.0,0.15627168,14-52-30-259,1501876350260,0.050301638,0.05945205,0.19409448,61.0,0.006037919,0.015534396,0.041026887,0.09476549965998159,-1.0967645628856733,146.52411407532162
-87.64713289,41.86969422,0.0,0.15627168,14-52-30-359,1501876350360,0.11971032,0.036822427,0.18110645,66.0,-0.02698528,0.018730192,0.026113182,0.2204039212758836,-1.321917159841795,146.53547951010052
-87.64713289,41.86969422,0.0,0.15627168,14-52-30-460,1501876350460,0.20124778,-0.038451068,0.43690068,65.0,1.7896455E-4,-0.044653043,-0.01276897,0.19243410986169626,-1.3856586196104697,146.65778087737874
-87.64713289,41.86969422,0.0,0.15627168,14-52-30-561,1501876350565,0.037530564,0.032556415,0.22347607,52.0,0.011364241,-0.023347754,-0.025552142,-0.09716290272876267,-1.2545601821246564,146.65265823550124
-87.64713289,41.86969422,0.0,0.15627168,14-52-30-661,1501876350662,0.024183577,0.024978274,0.20588157,50.0,0.051311657,-0.02441302,-0.031411096,-0.1348758656021608,-1.1203501665850792,146.57323679583237
-87.64713289,41.86969422,0.0,0.15627168,14-52-30-761,1501876350762,0.01833189,0.08820902,0.39770904,51.0,-0.011538945,0.009675442,0.0042752614,-0.1113458172207206,-1.0822552133761563,146.59660970317213
-87.64713289,41.86969422,0.0,0.15627168,14-52-30-861,1501876350862,-0.050815187,0.1702386,0.2518873,43.0,0.06782326,-0.11282997,0.047951102,-0.2487562633042313,-1.0741134144420896,146.48703980850678
-87.64713289,41.86969422,0.0,0.15627168,14-52-30-964,1501876350965,0.32622972,-0.10333433,0.17040372,33.0,0.018821092,-0.0068361564,-0.019160558,-0.5292993732320557,-1.2476738573374027,146.17813767310383
-87.64712991,41.86969265,0.0,0.14660196,14-52-31-097,1501876351098,-0.024703333,0.029997805,0.08723705,28.0,-0.003549461,0.027252307,-0.037802685,-0.5669593287682135,-1.0771550897785667,146.09039706302582
-87.64712991,41.86969265,0.0,0.14660196,14-52-32-367,1501876352368,0.05681986,0.23272179,-0.21699622,37.0,0.08646539,-0.008966685,-0.05058586,-0.19375576480630696,-0.5640425711883537,145.8157961376346
-87.64712991,41.86969265,0.0,0.14660196,14-52-32-378,1501876352379,-0.17377383,0.24768965,-0.35637674,32.0,0.0470506,0.0075449133,-0.035139523,-0.222647651758446,-0.4998535739464845,145.69040752485154
-87.64712991,41.86969265,0.0,0.14660196,14-52-32-469,1501876352470,-0.010818171,0.19057797,0.33170292,43.0,0.045985337,0.07146078,-0.038335316,-0.09949882742490702,-0.44184656491413804,145.70943643187917
-87.64712991,41.8696923,0.0,0.17094177,14-52-33-281,1501876353282,0.029974021,0.01667962,0.0068409843,68.0,-0.05628005,0.021393351,0.005340526,0.1260512478542911,-0.5866720017648108,145.85694119719477
-87.64713111,41.8696921,0.0,0.14296235,14-52-33-285,1501876353285,0.029974021,0.01667962,0.0068409843,68.0,-0.05628005,0.021393351,0.005340526,0.1260512478542911,-0.5866720017648108,145.85694119719477
-87.64713111,41.8696921,0.0,0.14296235,14-52-33-794,1501876353794,0.029974021,0.01667962,0.0068409843,68.0,-0.074922174,0.02299125,0.009068951,0.1260512478542911,-0.5866720017648108,145.85694119719477
-87.64713111,41.8696921,0.0,0.14296235,14-52-33-806,1501876353812,0.100780286,0.08738389,0.19726771,87.0,-0.060008477,0.011273338,0.01599317,0.41590070396966944,-0.7202830950915424,146.8458433059859
-87.64713111,41.8696921,0.0,0.14296235,14-52-33-899,1501876353900,0.086159766,0.053450525,0.016176084,78.0,-0.011538945,0.0139365,0.019721596,0.37669789941345566,-0.9902945068864567,147.13291615680157
-87.64713111,41.8696921,0.0,0.14296235,14-52-33-999,1501876354000,0.2070258,0.007940431,0.6847679,75.0,0.015625298,-0.015358272,0.05381006,0.43849558339387984,-1.367017005653095,147.6238838147204
-87.64713134,41.86969185,0.0,0.16887857,14-52-34-338,1501876354339,-0.006452636,0.14719805,-0.09613824,83.0,-0.03444213,0.13111559,0.0042752614,0.7434425590197631,-1.5651057250749816,147.5526586020555
-87.64713134,41.86969185,0.0,0.16887857,14-52-34-343,1501876354344,-0.032844596,0.093276754,0.17593107,101.0,-0.10421695,0.10767978,0.0016121005,1.478838728310428,-1.5812006389672937,147.83878888676566
-87.64713134,41.86969185,0.0,0.16887857,14-52-35-098,1501876355099,-0.18124367,0.11476733,0.4275576,106.0,-0.06853059,0.13537665,0.04741847,1.7668196741205584,-1.6180484423224546,148.07366543194405
-87.64713134,41.86969185,0.0,0.16887857,14-52-35-102,1501876355102,0.32398766,0.010852376,0.33789927,109.0,0.074214846,0.1545514,0.0010794683,2.095467032640416,-1.7977822022886956,148.2070453660561
-87.64713134,41.86969185,0.0,0.16887857,14-52-35-206,1501876355207,0.08640418,0.046900984,0.15405639,136.0,-0.009941048,0.010208075,0.020254228,5.654819054898868,-1.0848844093197882,147.1184771368961
-87.6471307,41.86969151,0.0,0.21438631,14-52-35-326,1501876355329,0.24915409,0.048605908,0.11375112,136.0,-0.039768454,-0.014825639,0.021852124,5.655433345037347,-1.142246899290494,147.15637102641136
-87.6471307,41.86969151,0.0,0.21438631,14-52-35-402,1501876355403,-0.1125148,0.1809739,0.33379993,137.0,0.022549517,-0.046783574,0.010134216,5.328583180042849,-1.0064493983774179,147.2716646196012
-87.6471307,41.86969151,0.0,0.21438631,14-52-35-562,1501876355563,0.1799767,-0.018144045,0.1923941,131.0,-0.04189898,-0.13413526,0.025580551,4.222439593487985,-1.187555279314891,146.7178865420749
-87.6471307,41.86969151,0.0,0.21438631,14-52-35-600,1501876355601,0.19796064,0.026623277,0.48664808,129.0,0.015625298,-0.20444272,0.01599317,3.8515513569330064,-1.2485845136528357,146.76793816831275
-87.6471307,41.86969151,0.0,0.21438631,14-52-35-700,1501876355701,0.08071628,0.10707729,-0.23063815,121.0,-0.0062126224,-0.12401525,0.0676585,2.857101213545126,-1.3880120466663621,146.5209175467901
-87.6471307,41.86969151,0.0,0.21438631,14-52-35-802,1501876355804,0.05533951,0.096497156,0.6555344,112.0,0.06888852,-0.101644695,0.11133434,2.55031600989801,-1.788381407391525,146.77285590451515
-87.6471307,41.86969151,0.0,0.21438631,14-52-35-902,1501876355905,0.080013365,-0.030227585,0.112634584,101.0,-0.014734738,-0.061697274,0.006938422,2.065828493954203,-2.0814920387117466,146.45018410774537
-87.6471307,41.86969151,0.0,0.21438631,14-52-36-001,1501876356003,0.043593664,0.014579591,-0.069194846,95.0,0.00390739,-0.050511997,0.0032099972,1.6385637692682342,-2.0582828424686315,146.37895889508047
-87.64713002,41.86969126,0.0,0.26050016,14-52-36-100,1501876356101,0.31004676,0.09937259,0.39809346,81.0,0.1114991,-0.026543548,-0.0612385,0.9708860974730423,-2.169987171249605,146.53363535902463
-87.64713002,41.86969126,0.0,0.26050016,14-52-36-200,1501876356202,0.056251187,0.043030236,0.2656563,73.0,-0.039768454,-0.020684594,-0.0010510606,0.6094248559940042,-2.0566890605144916,146.2892921716566
-87.64713002,41.86969126,0.0,0.26050016,14-52-36-309,1501876356309,0.113152765,0.04320949,-9.7454607E-4,67.0,-0.045094777,-0.027608812,0.0037426294,0.3946377914748908,-2.001554919760502,146.2553461314816
-87.64713002,41.86969126,0.0,0.26050016,14-52-36-403,1501876356403,0.22699803,0.025453635,0.039298326,59.0,-0.003549461,-0.043055147,-0.015964763,0.07906629651249406,-2.0151593759266984,146.33569647687762
-87.64713002,41.86969126,0.0,0.26050016,14-52-36-503,1501876356503,0.19716273,0.013800984,0.23369361,49.0,-0.038170557,-0.08939415,-0.027682673,-0.2743458338339485,-1.9638541965327359,146.50796750812367
-87.64713002,41.86969126,0.0,0.26050016,14-52-36-603,1501876356604,0.15440185,0.06485933,0.1676334,32.0,-0.009408416,-0.085665725,-0.03194373,-0.8793325876517518,-1.8862156496806126,146.68217831309403
-87.64713002,41.86969126,0.0,0.26050016,14-52-36-704,1501876356705,-0.15149286,0.042300668,-0.08380033,18.0,0.0023094935,-0.015890904,0.009601584,-1.4402184908656488,-1.8135650619133026,146.71044163587953
-87.64713002,41.86969126,0.0,0.26050016,14-52-36-804,1501876356808,-0.13633557,0.007367702,0.09022951,20.0,-0.02219159,0.006479649,0.047951102,-1.392184225032182,-1.8613981573313712,146.76688631918057
-87.64713002,41.86969126,0.0,0.26050016,14-52-36-904,1501876356905,0.1657375,-0.40062907,-0.4661384,23.0,0.033734795,0.009675442,-0.004779486,-1.3538695318310552,-2.075739311883303,146.57233521086192
-87.64713002,41.86969126,0.0,0.26050016,14-52-37-005,1501876357005,0.23769511,-0.31744432,0.15569715,27.0,-0.045627408,0.0304481,-0.05111849,-1.1301520216525764,-1.9440731149227328,146.83048904073172
-87.64712965,41.86969112,0.0,0.28865477,14-52-37-116,1501876357116,-0.14215437,-0.23851807,-0.05876831,22.0,0.020951621,-0.025478285,-0.07242378,-1.0184006285993534,-1.4878910768382223,146.85189485359052
-87.64712965,41.86969112,0.0,0.28865477,14-52-37-204,1501876357206,-0.060331248,-0.26462063,-0.43802974,14.0,-0.007277887,0.019795455,-0.010638441,-1.087346052185343,-1.1790974774100054,146.65380570728183
-87.64712965,41.86969112,0.0,0.28865477,14-52-37-304,1501876357304,-0.018788923,-0.26629525,-0.25168782,15.0,-0.0323116,0.018197559,-0.03620479,-1.038928655428121,-1.162683785782524,146.6662229911929
-87.64712965,41.86969112,0.0,0.28865477,14-52-37-405,1501876357406,0.038506396,0.15482123,-0.2918267,9.0,-0.009408416,0.025121778,-0.064966924,-0.96495322440524,-0.8654637818203351,146.76863484760804
-87.64712965,41.86969112,0.0,0.28865477,14-52-37-505,1501876357505,-0.16701476,0.057176836,-0.06113529,18.0,-0.17345914,0.003816488,0.13636807,-0.8099952286012798,-0.9958769058724728,147.16673925357145
-87.64712965,41.86969112,0.0,0.28865477,14-52-37-605,1501876357606,0.18323418,0.23356123,-0.5426532,34.0,-0.105814844,0.06506919,-0.024486879,-0.6159343997989966,-1.4281652346929863,147.80995182808988
-87.64712965,41.86969112,0.0,0.28865477,14-52-37-705,1501876357706,-0.22746778,1.173588,0.003504588,77.0,-0.29916033,0.17851985,-0.050053224,0.22267497251512605,-0.6714451080918356,149.03554731237864
-87.64712965,41.86969112,0.0,0.28865477,14-52-37-805,1501876357805,-0.010062805,0.47340757,-0.1062265,132.0,-0.057345316,0.020328088,-0.05378165,0.8849339831013969,-0.291287210935666,150.1158919937779
-87.64712965,41.86969112,0.0,0.28865477,14-52-37-905,1501876357906,-0.32394662,0.7646767,-0.9998552,169.0,-0.16493702,-0.03932672,0.02984161,0.7629922679716321,0.2616271678257385,150.4067077882587
-87.64712965,41.86969112,0.0,0.28865477,14-52-38-010,1501876358011,0.44423166,0.5522749,0.124468446,268.0,-0.10368431,-0.072882555,-0.05591218,-0.3296643096542487,0.6568657491433261,151.67564765302035
-87.64712981,41.86968896,0.25079873,0.5070813,14-52-38-107,1501876358108,-0.039424032,0.5424883,-0.43943247,298.0,-0.27093083,-0.35251448,0.060201645,-1.1957011336737773,0.8151575175924872,152.602941455498
-87.64712981,41.86968896,0.25079873,0.5070813,14-52-38-204,1501876358204,0.38529155,-0.17279366,-0.055915885,318.0,-0.099955894,0.03311126,-0.0026489573,-2.199587930451971,0.622082583908213,153.53069971083914
-87.64712981,41.86968896,0.25079873,0.5070813,14-52-38-305,1501876358305,1.0087441,-1.4048572,1.1502168,342.0,-0.07438955,-0.016423536,-0.0031815895,-1.7060474256501352,-0.18530184490346913,155.44621260319082
-87.64712981,41.86968896,0.25079873,0.5070813,14-52-38-473,1501876358475,-0.6382165,-0.13113739,-0.67081547,255.0,0.12588017,0.005947017,0.12731332,-0.3382670929964384,1.6808726290299376,153.83845437446155
-87.64712981,41.86968896,0.25079873,0.5070813,14-52-38-505,1501876358505,0.13846792,-0.8778496,-0.3955275,256.0,-8.862999E-4,0.0150017645,0.0016121005,-0.3191354129661154,1.4202628125449872,153.5125860491603
-87.64712981,41.86968896,0.25079873,0.5070813,14-52-38-604,1501876358605,-0.62697285,-0.3438433,-1.0160289,245.0,0.1114991,0.134844,-0.006377383,-0.044952893357492224,1.3021138801169894,152.9696679724143
-87.64712981,41.86968896,0.25079873,0.5070813,14-52-38-704,1501876358705,-0.09774785,-0.65366656,-0.45632255,215.0,0.241994,0.0139365,-0.024486879,0.6983768107934604,1.3668017479725338,151.86928351599022
-87.64712981,41.86968896,0.25079873,0.5070813,14-52-38-805,1501876358805,0.54061216,-0.5945795,0.08567785,232.0,0.055040084,-0.15757108,0.027711079,0.18374948431138538,1.1203238063237513,151.14544738850896
-87.64712981,41.86968896,0.25079873,0.5070813,14-52-38-909,1501876358910,1.284639,0.277374,0.11301747,296.0,0.15837073,-0.19059429,-0.031411096,-0.9279798096023743,1.0476497397811695,151.05515228768135
-87.64712981,41.86968896,0.25079873,0.5070813,14-52-39-005,1501876359009,-0.4430335,0.113724634,-0.8893643,309.0,0.08273696,0.06293867,0.13583542,-2.6478797126629416,1.0032357943729269,150.07243833027826
-87.64712981,41.86968896,0.25079873,0.5070813,14-52-39-173,1501876359174,-0.6310728,0.6341914,-0.6547325,232.0,-0.018995795,0.32925478,0.06126691,0.07708553498308374,0.6273488732017044,149.4727613815295
-87.6471289,41.86968465,0.66,0.99035174,14-52-39-228,1501876359229,-0.63145345,0.64377886,-0.20685518,168.0,-0.12498961,0.07625447,0.14222701,1.0909393720190044,0.3623105861744998,149.64331120510474
-87.6471289,41.86968465,0.66,0.99035174,14-52-39-324,1501876359325,0.37036395,0.90380526,-0.23090334,126.0,0.016690563,-0.30777338,0.12678067,1.188469884333438,-0.5289794215581229,149.95978119010806
-87.6471289,41.86968465,0.66,0.99035174,14-52-39-424,1501876359426,0.9513093,0.8154303,-0.1690777,18.0,-0.15854543,-0.1495816,-0.05591218,-0.5415259454549074,-0.6080961707570252,150.10257312489637
-87.6471289,41.86968465,0.66,0.99035174,14-52-39-526,1501876359527,1.7895311,-1.1311226,0.002508984,354.0,-0.1612086,0.02831757,0.08470273,-2.4563761493745937,-1.0429902701067513,151.03167009731487
-87.6471289,41.86968465,0.66,0.99035174,14-52-39-623,1501876359624,-0.21974674,-0.99885285,-0.4831728,338.0,-0.14043593,0.2914379,-0.28654194,-2.523566641230713,-0.26778210208284564,151.81636321030095
-87.6471289,41.86968465,0.66,0.99035174,14-52-39-724,1501876359731,-0.67547226,-0.5871134,0.7666371,319.0,0.06782326,0.15135561,0.025047919,-0.7468066939902589,0.17893740259769983,152.1071380236467
-87.6471289,41.86968465,0.66,0.99035174,14-52-39-825,1501876359825,-1.3935375,-0.4734829,-0.08549632,306.0,0.04918113,-0.28433755,-0.06390166,-0.5560032250918371,0.2739711072445234,151.7905860763733
-87.6471289,41.86968465,0.66,0.99035174,14-52-39-925,1501876359926,0.4511452,-0.6224821,-0.5128164,314.0,-0.12818539,-0.09631837,-0.121958576,-1.9239135981440285,0.6229676270142586,151.9011941597925
-87.6471289,41.86968465,0.66,0.99035174,14-52-40-026,1501876360030,2.4425733,-0.46092224,1.3983216,296.0,0.027343208,-0.21509537,-0.092131175,-1.8929384768146091,1.3725615184335587,152.45489027504868
-87.6471289,41.86968465,0.66,0.99035174,14-52-40-126,1501876360127,0.6429698,0.9626748,1.1855725,266.0,-0.07172638,0.25681677,0.060201645,-0.8854155647987357,1.9256964909608134,151.76368879142183
-87.64713091,41.86967945,0.53009427,1.5466183,14-52-40-225,1501876360226,-0.44303936,0.1810218,0.6079475,208.0,-0.1313812,0.28398103,0.12944384,0.8213071424447316,1.2145242812526862,152.09728889086352
-87.64713091,41.86967945,0.53009427,1.5466183,14-52-40-326,1501876360326,-1.5972297,0.09178743,-0.380391,170.0,-0.03497476,-0.06755623,0.21786079,1.388897943546054,0.43620920424964454,152.38714845886057
-87.64713091,41.86967945,0.53009427,1.5466183,14-52-40-428,1501876360429,-0.5696703,0.7294778,-0.074261636,126.0,-0.06746533,-0.16076687,0.13263963,1.0561948400413843,-0.5222023797975893,152.68570968786014
-87.64713091,41.86967945,0.53009427,1.5466183,14-52-40-527,1501876360528,1.5128968,0.57515574,0.80698377,63.0,0.022549517,-0.07128466,0.11453013,-0.009155868582402093,-1.4472729023395083,153.00006231422083
-87.64713091,41.86967945,0.53009427,1.5466183,14-52-40-628,1501876360629,1.5021526,-1.2949775,0.728038,65.0,-0.030181073,0.3681369,5.4683606E-4,0.050659519744091185,-2.16167077560488,153.43641577953622
-87.64713091,41.86967945,0.53009427,1.5466183,14-52-40-731,1501876360733,-0.25690648,-0.94494295,1.0948272,111.0,-0.015800003,0.061340768,-0.19279866,2.7677538014648966,-2.5024923059900503,152.8770915884039
-87.64713091,41.86967945,0.53009427,1.5466183,14-52-40-834,1501876360834,-1.6995801,-0.35645428,-0.17176926,120.0,0.10244436,-0.17141952,-0.1390028,2.652652307345488,-1.7333679688867747,152.94554374426582
-87.64713091,41.86967945,0.53009427,1.5466183,14-52-40-934,1501876360935,-1.2901604,-0.4469922,-0.5343325,132.0,0.12002122,-0.07234992,-0.2151692,1.779762242267498,-0.6646875430426071,152.4649306531287
-87.64713091,41.86967945,0.53009427,1.5466183,14-52-41-034,1501876361034,0.9874648,-0.39217916,-0.53128916,152.0,-0.03657266,-0.13892895,-0.012236338,1.1972314162129776,0.0031681918342726764,151.94046774752007
-87.64713354,41.86967016,1.2,2.584124,14-52-41-134,1501876361134,1.7595047,0.591482,-0.40832266,232.0,0.116825424,-0.44306195,-0.1901355,0.12153989456728445,0.7417894397972085,151.53099790677777
-87.64713354,41.86967016,1.2,2.584124,14-52-41-236,1501876361238,0.64256394,1.2898848,0.40931565,226.0,0.24732032,0.3628106,0.17471758,0.37946759448274875,1.4925448902622338,150.2227571335319
-87.64713354,41.86967016,1.2,2.584124,14-52-41-337,1501876361338,-0.9088491,0.3214331,0.79720074,163.0,-0.17345914,0.24829468,0.2514166,2.419285447417074,0.5819400146913142,149.71083445523948
-87.64713354,41.86967016,1.2,2.584124,14-52-41-434,1501876361435,-0.9746206,0.35551944,-0.405685,132.0,-0.03657266,-0.16289741,0.17951128,2.9711455224470638,-0.9730703706252712,150.51205662601694
-87.64713354,41.86967016,1.2,2.584124,14-52-41-535,1501876361535,0.5938259,0.83668596,-0.5524251,117.0,-0.23524448,-0.099514164,-0.0074426476,2.2661816345293606,-1.5097445872527953,150.8771438975325
-87.64713354,41.86967016,1.2,2.584124,14-52-41-635,1501876361635,2.1606205,-0.0048952242,0.8911814,109.0,-0.263474,-0.077676244,0.14542282,1.9260149485308653,-1.811412271664279,152.39191593090118
-87.64713354,41.86967016,1.2,2.584124,14-52-41-734,1501876361735,0.9127771,-0.5586538,1.1567457,120.0,0.06462747,0.2355115,-0.20771235,2.9901488162653314,-1.9341473559548232,153.26060671030018
-87.64713354,41.86967016,1.2,2.584124,14-52-41-836,1501876361837,-1.142092,-0.2653007,0.67550385,139.0,-0.023789486,-0.019086696,0.10920381,4.516144557987703,-1.132935643904474,153.09640896265296
-87.64713354,41.86967016,1.2,2.584124,14-52-41-934,1501876361935,-1.5423642,0.019068837,-0.2002597,136.0,0.4406658,-0.20391008,-0.20398393,4.000419598761666,-1.198909508314685,152.24979335465162
-87.64713354,41.86967016,1.2,2.584124,14-52-42-035,1501876362036,-0.2808409,-0.06576974,-0.69065017,147.0,0.32721516,-0.108568914,-0.03886795,3.0532211309387565,-0.17595495780793144,149.9830994559345
-87.64713484,41.86965792,1.2525574,3.9478617,14-52-42-137,1501876362142,1.8120254,-0.43914348,0.5221921,156.0,0.59992284,-0.28487018,-0.14752492,2.3411865031262096,0.3269643305392574,147.59041588778734
-87.64713484,41.86965792,1.2525574,3.9478617,14-52-42-235,1501876362236,0.8248561,1.3122512,1.3674273,171.0,0.86038,0.0932987,0.067125864,1.6547990222036486,0.8309010502685137,144.10024386342417
-87.64713484,41.86965792,1.2525574,3.9478617,14-52-42-336,1501876362337,-1.197173,0.59757215,0.37249425,152.0,0.19672026,0.24722941,0.3488883,2.2026672785505887,0.4670639701753689,140.08514448058884
-87.64713484,41.86965792,1.2525574,3.9478617,14-52-42-436,1501876362437,-0.89479357,0.09863382,0.051853746,128.0,0.32561725,-0.10270996,0.09482274,3.757366890259939,-0.677667997395099,138.52130436822273
-87.64713484,41.86965792,1.2525574,3.9478617,14-52-42-589,1501876362590,0.07080172,0.4946376,-0.74979806,106.0,0.25744033,-0.061164644,0.010666848,2.4072912083477083,-1.4108790931207418,135.96972327922435
-87.64713484,41.86965792,1.2525574,3.9478617,14-52-42-636,1501876362637,0.42294186,0.41678625,-0.24324581,103.0,0.30111617,-0.042522516,0.05381006,2.2724361668183883,-1.4271913991277305,135.40139689876594
-87.64713484,41.86965792,1.2525574,3.9478617,14-52-42-736,1501876362736,2.3176634,-0.39150956,-0.83182406,82.0,0.25584245,0.13537665,0.017591067,1.721394860715154,-2.1517670013083614,132.89911611519676
-87.64713484,41.86965792,1.2525574,3.9478617,14-52-42-838,1501876362842,-0.81449586,-0.24286877,0.04726207,102.0,0.38314155,0.24669677,-0.18747233,2.331257329063715,-1.7046982498456462,131.0846763621829
-87.64713484,41.86965792,1.2525574,3.9478617,14-52-42-936,1501876362937,-1.134286,0.19774838,-0.09705958,113.0,0.3048446,-0.06436044,-0.04153111,3.135802386872442,-0.8948246839889572,128.73087023079142
-87.64713484,41.86965792,1.2525574,3.9478617,14-52-43-040,1501876363041,-1.6951222,-0.61178166,-0.60038334,125.0,0.33840042,-0.13093947,0.041026887,2.722609025815463,-0.1247167062637073,127.3410496780989
-87.64713565,41.86964565,1.2014991,5.3120823,14-52-43-137,1501876363137,0.29649547,-0.61918706,-0.7244489,116.0,0.30590987,-0.11016681,0.11612803,1.8260118010151813,-0.3140201615667312,125.55092539853024
-87.64713565,41.86964565,1.2014991,5.3120823,14-52-43-309,1501876363310,0.8838159,1.2987838,-0.19666277,131.0,0.6036512,0.12472401,0.015460538,1.8025588523960616,0.30864144095619905,120.85124981556294
-87.64713565,41.86964565,1.2014991,5.3120823,14-52-43-338,1501876363339,0.8500052,1.0146879,-0.20833343,130.0,0.560508,0.09170081,0.0058731586,2.00917378233624,0.33657088488517456,120.14066425507144
-87.64713565,41.86964565,1.2014991,5.3120823,14-52-43-439,1501876363442,-0.6327182,0.565102,0.18343535,122.0,0.1429244,0.044296537,1.4203833E-5,2.9641556776052016,0.19248588322921348,118.22205045683654
-87.64713565,41.86964565,1.2014991,5.3120823,14-52-43-538,1501876363539,-1.4915999,0.06426109,-0.47164798,114.0,-0.0802485,-0.15916897,0.20401235,3.028156684562337,-0.17238478324421141,117.75090400788906
-87.64713565,41.86964565,1.2014991,5.3120823,14-52-43-638,1501876363638,0.6819609,0.31234643,-0.6560773,75.0,0.08699802,-0.18313743,0.21892606,1.9700577158464,-1.8125159875454708,117.89409209364919
-87.64713565,41.86964565,1.2014991,5.3120823,14-52-43-738,1501876363739,1.1710817,0.07515643,0.93932045,50.0,0.1477181,-0.22628064,0.038896356,1.1334243225952474,-2.7131357668800664,117.59443803438239
-87.64713565,41.86964565,1.2014991,5.3120823,14-52-43-839,1501876363840,1.4562191,-0.719792,0.9944486,39.0,0.21909082,0.10288608,-0.107044876,0.642034153443202,-3.16638263789047,117.92482794491428
-87.64713565,41.86964565,1.2014991,5.3120823,14-52-43-937,1501876363938,-1.0294807,0.21951686,1.1648451,64.0,0.3495857,0.1561493,-0.075086944,1.7505458946493568,-2.332336072065754,116.84106816893001
-87.64713565,41.86964565,1.2014991,5.3120823,14-52-44-037,1501876364038,-1.3982267,0.2112855,-0.23432669,59.0,0.13866335,-0.26889122,-0.002116325,1.5988542233725436,-2.3857936148219165,115.24142420493467
-87.64713528,41.86963397,1.2120231,6.605502,14-52-44-138,1501876364139,-0.73937166,-0.5311174,-0.063669644,29.0,0.35544467,-0.2832723,0.16832599,0.2208308080990094,-2.6188266492546464,114.28595587213078
-87.64713528,41.86963397,1.2120231,6.605502,14-52-44-238,1501876364238,1.213645,-0.63492215,0.538224,6.0,0.47635219,-0.05530569,-0.19386391,-0.8907813187220155,-3.1990130128765597,111.99126502800578
-87.64713528,41.86963397,1.2120231,6.605502,14-52-44-338,1501876364339,1.7648178,0.6560118,0.6595648,1.0,0.7165693,0.2669368,-0.14006807,-0.7359423709808545,-2.2840912443067802,109.23004494281224
-87.64713528,41.86963397,1.2120231,6.605502,14-52-44-438,1501876364442,-0.8182201,0.79115427,0.120800205,38.0,-0.25335398,0.10235345,0.040494252,0.5112976626225466,-1.272758367394509,105.70846770864534
-87.64713528,41.86963397,1.2120231,6.605502,14-52-44-538,1501876364539,-1.2119995,-0.28802022,0.57768613,46.0,0.13866335,-0.13040684,0.10441012,0.8401877596622038,-1.495874073874086,106.44482357287524
-87.64713528,41.86963397,1.2120231,6.605502,14-52-44-637,1501876364638,-1.4647601,-0.22532028,-1.182748,19.0,-0.29436666,-0.15011424,0.20667551,0.12121887567629386,-2.2348577466654476,106.15822883530154
-87.64713528,41.86963397,1.2120231,6.605502,14-52-44-738,1501876364739,0.7969858,-0.36280435,-0.6306175,9.0,-0.33431408,0.018197559,0.08789852,-0.5202046028262135,-3.4096468688130557,107.96098213464552
-87.64713528,41.86963397,1.2120231,6.605502,14-52-44-838,1501876364839,2.224872,-0.850864,-0.9067884,7.0,-0.8903822,-0.062762536,0.038896356,-0.8569065152856612,-3.8144531844560823,109.32117332671851
-87.64713528,41.86963397,1.2120231,6.605502,14-52-44-941,1501876364942,0.3740278,-0.38641003,1.41694,10.0,-0.46907002,0.25468627,-0.28174827,-0.95798205586189,-3.7023014782844728,114.48224184849857
-87.64713528,41.86963397,1.2120231,6.605502,14-52-45-042,1501876365043,-1.0498236,0.39258337,0.1680588,29.0,-0.4722658,0.064536564,-0.09745749,0.09497041200518858,-2.527054520019062,117.25052434929393
-87.64713473,41.86962195,1.2001667,7.937518,14-52-45-141,1501876365145,-1.567861,-0.5159041,-0.23703471,32.0,-0.26773503,-0.045185678,-0.08147853,0.06968160992278992,-1.7113094460753955,119.9647459028086
-87.64713473,41.86962195,1.2001667,7.937518,14-52-45-242,1501876365242,-0.0029458448,-0.70805216,-0.008667845,27.0,-0.40195838,-0.15916897,0.074050084,-0.11757837150846384,-1.690226146211447,121.30976041454585
-87.64713473,41.86962195,1.2001667,7.937518,14-52-45-341,1501876365342,2.5366628,-0.46589217,0.5803923,20.0,-0.35242358,-0.107503645,-0.096924864,-0.46788679452694387,-1.902644815955432,123.77011749698954
-87.64713473,41.86962195,1.2001667,7.937518,14-52-45-442,1501876365443,0.46946287,0.84266716,-0.029995741,67.0,-0.42432892,0.09383134,-0.012236338,0.7115020331398447,-1.1721301508480633,125.85832489231586
-87.64713473,41.86962195,1.2001667,7.937518,14-52-45-545,1501876365546,-0.26980385,-0.035790425,-0.049306072,90.0,-0.8269989,0.07785237,-0.015964763,1.4612109705579772,-1.194585038074715,129.42589662035357
-87.64713473,41.86962195,1.2001667,7.937518,14-52-45-647,1501876365648,-1.4791158,-0.07634684,-0.3439542,95.0,-0.6496324,-0.13520053,0.05434269,1.3586177939646833,-1.0924898249605974,133.49114325207518
-87.64713473,41.86962195,1.2001667,7.937518,14-52-45-743,1501876365743,-0.42133775,0.52376354,-1.079608,68.0,-0.5340512,-0.07021939,0.15394492,0.5545517031715036,-1.4076465993743275,136.5026282986471
-87.64713473,41.86962195,1.2001667,7.937518,14-52-45-844,1501876365845,2.2068553,0.16550113,0.60253644,58.0,-0.48877743,-0.12561315,0.03729846,0.3231516175589358,-2.1884077645543063,139.60125289865016
-87.64713473,41.86962195,1.2001667,7.937518,14-52-45-945,1501876365946,1.1119766,-1.0206306,0.95631975,70.0,-0.6102176,0.30741686,-0.04579217,0.7303002078396008,-2.4391482778537057,143.1526917198683
-87.64713473,41.86962195,1.2001667,7.937518,14-52-46-043,1501876366044,-0.6332511,-0.3946946,0.935097,115.0,-0.5969018,0.07891763,-0.10118592,2.985843449210696,-1.8191028512263019,146.61585717625326
-87.64713437,41.86960902,1.2401613,9.372084,14-52-46-144,1501876366145,-1.3276236,-0.20797004,0.1114855,119.0,-0.4504279,-0.2241501,-0.19919024,2.405732431113065,-1.4442297328991505,149.75322260922854
-87.64713437,41.86960902,1.2401613,9.372084,14-52-46-244,1501876366245,-0.701512,-0.6436437,-0.37405708,129.0,-0.12445697,-0.28167439,-0.051651124,1.0024155313422907,-0.4233508395285666,151.40312310513684
-87.64713437,41.86960902,1.2401613,9.372084,14-52-46-344,1501876366345,0.8906818,-0.52427375,0.06684064,347.0,-0.12126118,-0.015358272,-0.17628706,-0.35025428843322237,-0.09404326051610562,152.1943868601045
-87.64713437,41.86960902,1.2401613,9.372084,14-52-46-445,1501876366445,1.2207909,0.86533535,-0.27880397,290.0,0.0470506,0.23071781,0.046353206,-0.8032224023481246,0.725784652385429,152.4851616734502
-87.64713437,41.86960902,1.2401613,9.372084,14-52-46-545,1501876366545,-0.34315166,0.9440664,0.16330844,204.0,-0.052551627,0.37719166,0.050081633,0.39208324736445316,0.5009219649430626,152.3007875469949
-87.64713437,41.86960902,1.2401613,9.372084,14-52-46-645,1501876366646,-1.2167627,0.18237102,0.2672778,163.0,0.0470506,0.021393351,-0.0058447504,2.7350779630321442,0.5213363865160258,152.1602905557678
-87.64713437,41.86960902,1.2401613,9.372084,14-52-46-745,1501876366746,-0.6830898,0.7707507,-0.9554647,157.0,-0.02698528,-0.22787854,0.107073285,2.296825705127446,0.19922973453924905,151.95714706947325
-87.64713437,41.86960902,1.2401613,9.372084,14-52-46-846,1501876366846,1.4193286,0.39516652,-0.3977403,126.0,0.007635815,-0.26463017,0.12305225,0.5639675991900421,-0.2704230107336869,151.93378782251182
-87.64713437,41.86960902,1.2401613,9.372084,14-52-46-946,1501876366946,2.1631153,0.011348972,-0.6233458,5.0,-0.26081082,-0.17195216,0.0010794683,-1.2357351135550434,-0.8211343600030715,151.82178638050192
-87.6471354,41.8695967,1.2010412,10.74237,14-52-47-098,1501876367099,-0.40879238,-0.33080426,0.8156699,338.0,0.39698997,-0.15703845,-0.34087044,-3.249619805427888,-0.32541659900116193,152.08825938078076
-87.6471354,41.8695967,1.2010412,10.74237,14-52-47-145,1501876367146,-0.7022689,-0.05788839,0.3807383,325.0,0.26223403,-0.45318198,-0.17575443,-3.6154872126126723,0.3757620834558846,151.2182025635479
-87.6471354,41.8695967,1.2010412,10.74237,14-52-47-246,1501876367247,-1.5116485,-0.22634992,-0.48616245,319.0,0.024147414,-0.5368052,-0.03673742,-6.8694994700071135,1.3664289690542393,150.06834021677628
-87.6471354,41.8695967,1.2010412,10.74237,14-52-47-361,1501876367362,-0.09940558,-0.2503459,-0.6880242,321.0,0.14345704,-0.5314789,-0.011171073,-9.805546784743596,1.543853164585664,149.70545226617344
-87.6471354,41.8695967,1.2010412,10.74237,14-52-47-446,1501876367446,1.2398607,-0.08549546,-0.4152271,322.0,0.14026125,-0.41429982,-0.08414169,-12.09845665704251,1.5501385394476623,149.25131298825931
-87.6471354,41.8695967,1.2010412,10.74237,14-52-47-603,1501876367604,-0.55420595,0.51125276,0.7649627,320.0,-0.016332634,-0.06009938,0.11879119,-13.7340052179573,1.4415036336466691,146.43939240885675
-87.6471354,41.8695967,1.2010412,10.74237,14-52-47-646,1501876367647,-0.11062542,0.21002698,0.36748388,321.0,0.06942116,-0.03453303,0.010134216,-13.845476466532848,1.1988962748231682,146.4321524083366
-87.6471354,41.8695967,1.2010412,10.74237,14-52-47-746,1501876367747,-1.4544499,0.31222928,0.45042083,321.0,0.10883594,-0.34718814,0.16726074,-14.34391805895099,1.1009372748600221,145.86862082067546
-87.6471354,41.8695967,1.2010412,10.74237,14-52-47-846,1501876367847,-0.43272328,0.5465598,-0.9839179,325.0,-0.061073743,-0.2587712,0.1123996,-16.923888829234492,0.28833043271613806,145.8217657229692
-87.6471354,41.8695967,1.2010412,10.74237,14-52-47-947,1501876367948,0.6070205,0.39553604,-1.0533634,327.0,-0.012071577,-0.29232705,0.10760591,-18.609357535245614,-0.2528673434934914,146.1749821257073
-87.6471354,41.8695967,1.2010412,10.74237,14-52-48-046,1501876368047,1.725812,-0.72343916,-0.7466499,328.0,-0.09729273,0.00914281,0.010134216,-19.24429192049,-0.5269456260110459,146.3252736082042
-87.64713776,41.86958441,1.1543397,12.113818,14-52-48-146,1501876368147,-0.7776259,-0.039810464,0.86752707,325.0,-0.023789486,0.35269058,-0.40531892,-18.236509461285664,0.49214362439486237,146.46042939150038
-87.64713776,41.86958441,1.1543397,12.113818,14-52-48-250,1501876368251,-1.1108004,-0.30010614,0.6999509,322.0,0.075280115,-0.17355005,0.10121433,-17.3195002161508,1.2696162669328916,146.28078175595078
-87.64713776,41.86958441,1.1543397,12.113818,14-52-48-352,1501876368353,-2.4168284,-0.0914835,-1.0706823,322.0,0.033734795,0.35854954,-0.007975279,-17.62093524724368,1.1676082454523975,145.65163937112254
-87.64713776,41.86958441,1.1543397,12.113818,14-52-48-450,1501876368450,0.016730132,-0.6297428,-0.7283942,323.0,-0.14895806,0.5359161,0.034635298,-15.459229893806128,0.9011629928170233,145.9337671649791
-87.64713776,41.86958441,1.1543397,12.113818,14-52-48-550,1501876368551,1.145791,0.35562816,-0.24612835,319.0,0.23933084,0.5524277,-0.15231861,-12.44176074774757,1.422708874041498,145.8146896469891
-87.64713776,41.86958441,1.1543397,12.113818,14-52-48-651,1501876368651,-0.015692394,1.1759304,-0.4457876,313.0,0.07741064,0.748969,0.008536319,-9.313139664457161,1.8135460654496733,143.59463227992478
-87.64713776,41.86958441,1.1543397,12.113818,14-52-48-776,1501876368777,-0.7344064,-0.09963432,1.1352848,307.0,0.021484254,0.33404845,0.214665,-5.1553004270259795,1.6033791169759712,144.03064423578178
-87.64713776,41.86958441,1.1543397,12.113818,14-52-48-851,1501876368851,-1.5822313,0.2793216,-0.58052516,311.0,0.09978119,0.43098754,0.036233194,-3.154254783245466,0.6850669065352211,143.71921493038587
-87.64713776,41.86958441,1.1543397,12.113818,14-52-48-950,1501876368951,0.11960905,0.2077643,-0.7675585,325.0,-0.085042186,0.079450265,0.33344197,-1.6140129744617406,-0.047447663307532355,143.13461903932443
-87.64713776,41.86958441,1.1543397,12.113818,14-52-49-052,1501876369053,2.3447616,-0.9141905,0.18491574,8.0,-0.3364446,0.3447011,-0.18001549,-1.4326278028202375,-1.3821476889336715,144.25203798753853
-87.64714115,41.86957249,1.27,13.450661,14-52-49-150,1501876369151,0.8031839,-0.70810944,0.83401585,107.0,-0.17772019,0.38145274,-0.21303868,0.4693075272351594,-0.36599168461116643,145.41584758059537
-87.64714115,41.86957249,1.27,13.450661,14-52-49-250,1501876369251,-0.5704962,0.043877803,0.38661495,159.0,-0.10261905,-0.08726362,-0.13261122,2.0854302830984937,0.4627767991715694,146.52804826428354
-87.64714115,41.86957249,1.27,13.450661,14-52-49-351,1501876369352,-1.3913383,-0.39662015,-0.3668257,189.0,0.13227177,-0.16129951,-0.037802685,1.5513698944889687,1.3968365443523127,146.93719025594567
-87.64714115,41.86957249,1.27,13.450661,14-52-49-450,1501876369451,0.5967152,-0.15086775,-0.68801516,228.0,0.1477181,-0.24598804,0.043157414,0.18322354640508118,1.3416948263572133,145.8451113095523
-87.64714115,41.86957249,1.27,13.450661,14-52-49-592,1501876369593,1.4323573,1.184701,-0.12311942,251.0,0.63827235,0.080515526,0.14915124,-0.6440013546458715,1.9875918786628806,143.28926818251188
-87.64714115,41.86957249,1.27,13.450661,14-52-49-651,1501876369651,0.15846854,1.0524068,-0.22584292,244.0,0.22228661,0.25415364,0.07032166,-0.3417198069827328,1.564229539870516,141.25567497978898
-87.64714115,41.86957249,1.27,13.450661,14-52-49-751,1501876369752,-0.7308138,0.33657095,0.4107547,203.0,0.33733517,-0.065958336,0.011732113,0.7494741496654133,1.4311651818425026,140.15638335363212
-87.64714115,41.86957249,1.27,13.450661,14-52-49-852,1501876369852,-1.1818109,0.2911418,-0.8360662,225.0,0.10936858,-0.29179442,0.30361456,0.041223610070665266,0.8742608520279,138.1718992110416
-87.64714115,41.86957249,1.27,13.450661,14-52-49-951,1501876369952,0.7574995,0.1419175,-0.41170657,333.0,0.1807413,-0.29179442,0.009601584,-1.8978658179705388,-0.5121028778926676,137.50392037059265
-87.64714549,41.86955957,1.1771151,14.907297,14-52-50-064,1501876370068,1.7202015,0.14856857,-0.8819218,323.0,0.12907597,0.02299125,-0.06763009,-3.7988342493715557,-0.48063486236509667,135.71770295922926
-87.64714549,41.86955957,1.1771151,14.907297,14-52-50-151,1501876370152,0.066162676,-0.65195477,0.6921806,312.0,0.252114,0.3164716,-0.41064525,-3.531100011973753,0.1882921737592521,134.6936253762126
-87.64714549,41.86955957,1.1771151,14.907297,14-52-50-255,1501876370260,-0.8553452,-0.016896974,-0.0039602756,283.0,0.18979605,-0.18153954,0.0511469,-2.6271932041010886,1.534112674498991,133.28974829420815
-87.64714549,41.86955957,1.1771151,14.907297,14-52-50-351,1501876370352,-1.4928854,-0.46914378,-0.7258172,293.0,0.2718214,-0.25131434,0.01119948,-3.9482378072764144,1.3252701423940365,131.91607430871352
-87.64714549,41.86955957,1.1771151,14.907297,14-52-50-452,1501876370452,0.31908357,-0.7401639,-0.3928277,303.0,0.23293926,-0.3013818,0.12251962,-5.55833196070186,0.7814383677640152,130.6153057624196
-87.64714549,41.86955957,1.1771151,14.907297,14-52-50-552,1501876370553,1.8108417,-0.41935527,0.5944821,303.0,0.4502532,-0.035598297,0.012264745,-6.461925006759527,0.6603623257506965,128.77213823375666
-87.64714549,41.86955957,1.1771151,14.907297,14-52-50-653,1501876370653,0.5142099,0.85599226,-0.385552,311.0,0.23506978,0.073591314,0.20081656,-6.514286090710491,-0.5177742294204526,126.3488007766145
-87.64714549,41.86955957,1.1771151,14.907297,14-52-50-753,1501876370753,-0.50283056,-0.10893304,0.98672587,315.0,-0.054149523,0.08530922,-0.10757751,-5.395686373543639,-0.7928383270147367,126.17942574557651
-87.64714549,41.86955957,1.1771151,14.907297,14-52-50-855,1501876370855,-1.5843469,-0.18436456,-0.8380794,314.0,-0.1132717,-0.1826048,0.15074913,-5.632828407092366,-0.7238484004774361,126.42527157456192
-87.64714549,41.86955957,1.1771151,14.907297,14-52-50-952,1501876370953,-0.007567356,-0.44726974,-0.83911145,318.0,-0.14682753,-0.11709103,-0.014899499,-6.630937183997847,-1.220122048164335,127.2256877830174
-87.64714896,41.86954826,1.1734564,16.183348,14-52-51-066,1501876371067,2.37385,-0.13423818,-0.63682514,317.0,-0.52712697,0.16307351,-0.107044876,-7.27361614998738,-1.1336396869975143,128.3093246155966
-87.64714896,41.86954826,1.1734564,16.183348,14-52-51-152,1501876371153,1.8035401,-1.0457046,2.0538697,318.0,-0.63045764,-0.056903586,0.023982653,-6.403820160603406,-0.5550196778513552,133.09217824227636
-87.64714896,41.86954826,1.1734564,16.183348,14-52-51-253,1501876371254,-1.1432608,-0.10686426,0.40892407,317.0,-0.31886774,-0.0015098343,-0.0942617,-5.4569924439863815,-0.1495830504737701,135.8174100607331
-87.64714896,41.86954826,1.1734564,16.183348,14-52-51-353,1501876371354,-2.1223605,-0.36039466,0.048332147,314.0,-0.5542912,-0.20391008,0.027178448,-5.812631429445659,0.3868337400591959,138.2900614836828
-87.64714896,41.86954826,1.1734564,16.183348,14-52-51-464,1501876371465,-0.5193798,-0.39040157,-0.3104232,318.0,-0.21340656,-0.05637095,0.12997648,-6.758073471434818,0.3008355485910794,140.66513682414967
-87.64714896,41.86954826,1.1734564,16.183348,14-52-51-556,1501876371557,2.278879,0.006996764,0.12047375,323.0,-0.30288878,0.015534396,-0.02715004,-6.907599972744737,-0.079274590601753,142.30921799888506
-87.64714896,41.86954826,1.1734564,16.183348,14-52-51-655,1501876371656,1.5829376,1.1261675,-0.01874078,326.0,0.055572715,0.16626932,0.14968386,-6.013740373141161,-0.3122716598196344,143.18928787344123
-87.64714896,41.86954826,1.1734564,16.183348,14-52-51-755,1501876371757,-0.117372625,0.4292902,0.09010386,334.0,-0.28264874,0.17638932,0.025580551,-4.78806249969555,-0.8674188701093984,143.86031297825997
-87.64714896,41.86954826,1.1734564,16.183348,14-52-51-854,1501876371855,-1.5814922,0.20270994,-0.3712946,339.0,-0.30288878,-0.06649096,0.16459757,-4.353341022704925,-1.0153890487839068,145.62496065222444
-87.64714896,41.86954826,1.1734564,16.183348,14-52-51-956,1501876371957,-0.17729303,0.49107003,-0.56923836,343.0,-0.19902548,-0.17674585,-0.044726904,-5.008430869303195,-1.363680351521838,147.29117163987075
-87.64714896,41.86954826,1.1734564,16.183348,14-52-52-057,1501876372058,1.3547853,0.78965145,-0.5342703,338.0,-0.2933014,-0.07607835,0.08044167,-6.529135348852922,-1.1002417695034445,148.35379881056298
-87.64715198,41.869537,1.1706835,17.45205,14-52-52-156,1501876372157,2.123311,-0.60546184,0.8728913,340.0,-0.2208634,0.15934509,0.02345002,-6.258959532270252,-1.0787941217359582,150.03406632752115
-87.64715198,41.869537,1.1706835,17.45205,14-52-52-256,1501876372257,-0.3672751,-0.24584988,0.67275244,341.0,0.055572715,-0.053707793,-0.1704281,-4.8388432486273025,-0.8352668218086212,150.71722184830583
-87.64715198,41.869537,1.1706835,17.45205,14-52-52-355,1501876372356,-1.7561903,0.064606845,-0.77536315,332.0,0.16689286,-0.10430785,-0.1374049,-5.411664747333238,-0.12632058675925703,150.19519049004174
-87.64715198,41.869537,1.1706835,17.45205,14-52-52-455,1501876372455,-0.597102,-0.007813601,-0.4617936,326.0,0.2105687,-0.29126176,0.03250477,-6.2253746383476525,0.3440337470074862,149.18064785110641
-87.64715198,41.869537,1.1706835,17.45205,14-52-52-564,1501876372564,1.8145307,0.24879003,0.29711872,328.0,-0.12818539,-0.30297968,-0.044726904,-8.169253733209274,0.08374958513762122,148.56746078817935
-87.64715198,41.869537,1.1706835,17.45205,14-52-52-664,1501876372667,0.5069636,1.0662429,-1.0923755,326.0,0.5759544,0.24456625,-0.0058447504,-9.164201413189508,0.21693690658101455,147.55943414971216
-87.64715198,41.869537,1.1706835,17.45205,14-52-52-756,1501876372757,-0.3371157,0.64738464,0.8295878,321.0,0.040659014,0.21527147,-0.17788495,-8.466964603657205,0.7237883161570812,145.8891660296989
-87.64715198,41.869537,1.1706835,17.45205,14-52-52-857,1501876372857,-1.7230709,0.3249678,0.0015792466,317.0,0.048115864,-0.18047427,0.23011133,-8.007175905525811,1.096145043383612,145.1513963163108
-87.64715198,41.869537,1.1706835,17.45205,14-52-52-959,1501876372964,-0.74327785,0.744512,-0.93557644,327.0,-0.20541707,-0.24172698,0.22478501,-9.44101873496637,-0.21502626788240925,145.79939002324824
-87.6471559,41.86952549,1.1627553,18.757254,14-52-53-098,1501876373098,0.5738336,0.40445668,-0.47166643,333.0,-0.08877061,-0.19805114,0.13743332,-10.872473559518363,-1.0913720218142424,146.75164133695307
-87.6471559,41.86952549,1.1627553,18.757254,14-52-53-166,1501876373166,2.015735,-0.5867191,-0.9757583,335.0,-0.19156863,0.03524179,-0.09532697,-11.467500856989657,-1.5671060100064433,147.2542886183527
-87.6471559,41.86952549,1.1627553,18.757254,14-52-53-261,1501876373265,-0.20568627,-0.3425567,0.69415694,331.0,0.060366407,0.030980732,-0.18640707,-11.030735872776729,-0.5619127794669261,148.23192091501323
-87.6471559,41.86952549,1.1627553,18.757254,14-52-53-365,1501876373366,-1.4566722,-0.11450316,-0.34119228,326.0,0.097118035,-0.3509166,-0.102783814,-11.67631254652164,0.37839637536096743,147.62964849437992
-87.6471559,41.86952549,1.1627553,18.757254,14-52-53-464,1501876373466,-1.3776367,-0.12647124,-0.30871955,323.0,0.16476233,-0.27102175,-0.02715004,-13.544691157184765,0.9547987608218409,147.18567253795072
-87.6471559,41.86952549,1.1627553,18.757254,14-52-53-565,1501876373566,1.0049452,-0.4756967,-0.5768886,323.0,0.15890338,-0.0340004,-0.19972287,-14.877717833154998,0.8514958848851004,146.19881948591058
-87.6471559,41.86952549,1.1627553,18.757254,14-52-53-668,1501876373669,1.9420737,1.349905,-1.2508061,318.0,0.1610339,0.47945705,-0.062303767,-14.090054441653603,1.6794465068755802,144.79554346055312
-87.6471559,41.86952549,1.1627553,18.757254,14-52-53-768,1501876373769,0.134271,0.22738871,1.3401519,314.0,0.11842332,-0.12880895,0.046353206,-10.557759786905333,1.8164497496205751,144.2282962499836
-87.6471559,41.86952549,1.1627553,18.757254,14-52-53-864,1501876373866,-1.7204792,0.039354205,0.10911154,316.0,-0.08450956,-0.51496726,0.0138626415,-11.791308172708915,1.7689094985631708,144.2220944382172
-87.6471559,41.86952549,1.1627553,18.757254,14-52-53-965,1501876373966,-1.096756,0.36632967,0.12955682,320.0,-0.07119375,-1.0012605,0.2727219,-14.892021956824296,1.266262857493827,144.82428489658054
-87.64715865,41.86951452,1.2000417,19.993502,14-52-54-068,1501876374069,0.021484848,0.4403816,-0.6308354,324.0,0.1429244,-0.7003233,0.16033651,-18.827747711314895,0.33016974365282964,145.06702981968283
-87.64715865,41.86951452,1.2000417,19.993502,14-52-54-165,1501876374166,1.6893305,-0.48291817,-1.5164723,326.0,-0.23684238,0.053351287,0.14489017,-21.330293164714423,-0.5331020810524603,145.02746936401007
-87.64715865,41.86951452,1.2000417,19.993502,14-52-54-266,1501876374267,-0.2729839,-0.36145306,0.06603297,324.0,-0.2640066,0.3297874,-0.39679682,-19.65250329887769,0.4442116779968136,145.38273482349916
-87.64715865,41.86951452,1.2000417,19.993502,14-52-54-366,1501876374366,-1.1319226,-0.15282197,0.35108,320.0,0.14239177,-0.23320486,0.067125864,-18.664852822251966,1.9771410489025263,146.28828130365946
-87.64715865,41.86951452,1.2000417,19.993502,14-52-54-548,1501876374549,-0.116955794,-0.5873587,-0.49302799,321.0,0.278213,-0.14319001,-0.01756266,-20.467401215920862,1.1684753593118717,144.6262913729202
-87.64715865,41.86951452,1.2000417,19.993502,14-52-54-566,1501876374567,0.26827767,-0.5957299,-0.23282646,321.0,0.30218145,-0.14532055,-0.0777501,-20.640329652874538,1.063380092326532,144.31712969032878
-87.64715865,41.86951452,1.2000417,19.993502,14-52-54-667,1501876374667,1.0419437,-0.1855813,-1.5399007,319.0,0.4103058,0.10448398,-0.27801982,-21.623313402749847,1.5646862020495549,142.79808195853957
-87.64715865,41.86951452,1.2000417,19.993502,14-52-54-767,1501876374768,-0.15528563,0.923846,-1.1342801,315.0,-0.021126324,0.4139433,0.053277425,-20.823885864176752,1.9070998068415728,139.93162914880367
-87.64715865,41.86951452,1.2000417,19.993502,14-52-54-867,1501876374868,-0.9259504,-0.23195933,0.27322307,315.0,0.0321369,0.048024964,0.02345002,-18.81653083315044,1.7664084753881826,140.2337830573067
-87.64715865,41.86951452,1.2000417,19.993502,14-52-54-967,1501876374968,-1.5244368,0.093908325,-0.3855536,316.0,-0.1297833,-0.16556057,0.10227959,-19.10257574049599,1.2741523663154264,140.20575196095297
-87.64715962,41.86950251,1.2001667,21.328121,14-52-55-082,1501876375083,-0.042104345,0.3571343,-1.0284239,317.0,-0.3130088,0.6014299,0.3440946,-20.265068814590283,1.3419458358092111,140.984898960333
-87.64715962,41.86950251,1.2001667,21.328121,14-52-55-168,1501876375169,1.5036812,-0.80599034,-2.1428401,322.0,-0.6533608,0.9236724,0.28230926,-17.26539828773513,0.15913210850069748,142.63355636181234
-87.64715962,41.86950251,1.2001667,21.328121,14-52-55-267,1501876375268,0.52490985,-1.3580344,0.38717982,325.0,-0.21660236,0.9178134,-0.19066812,-12.378245111108328,0.04085860849667949,145.64344314411852
-87.64715962,41.86950251,1.2001667,21.328121,14-52-55-368,1501876375368,-1.044384,-0.28933164,0.7672238,316.0,-0.23471184,0.6978363,-0.05804271,-5.9643551172342075,1.1048796813932946,146.50832267796056
-87.64715962,41.86950251,1.2001667,21.328121,14-52-55-468,1501876375469,-1.4362801,-0.4644824,-0.13056006,289.0,0.012429506,0.12046295,-0.120893314,-2.232848603832406,1.7694617833905897,147.16232695136762
-87.64715962,41.86950251,1.2001667,21.328121,14-52-55-574,1501876375575,0.6665907,-0.6118347,-0.7704884,269.0,-0.16067596,0.13750717,0.07564798,-1.1670116711170793,1.861299546475229,147.17115155577528
-87.64715962,41.86950251,1.2001667,21.328121,14-52-55-673,1501876375673,2.3348224,-0.24800535,0.9636721,252.0,0.24732032,0.06400393,-0.11663225,-0.5206485651222643,2.0220821995373295,147.7189327272103
-87.64715962,41.86950251,1.2001667,21.328121,14-52-55-769,1501876375770,0.012916187,0.89037764,-0.5579568,233.0,-0.115934856,0.4043559,-0.034606893,0.17146873748263633,2.4029422988371145,146.76317069627203
-87.64715962,41.86950251,1.2001667,21.328121,14-52-55-871,1501876375872,-1.2213197,0.17588726,-0.11928717,197.0,0.11842332,0.10288608,0.05860375,2.1844547925721614,2.617543000577507,146.79106518884237
-87.64715962,41.86950251,1.2001667,21.328121,14-52-55-970,1501876375971,-1.6461989,0.53780854,-1.1798928,190.0,-0.26134345,-0.19538797,0.22851343,1.99331130831912,1.9071885993007829,146.47964954382485
-87.64716094,41.86949123,1.2600397,22.585472,14-52-56-070,1501876376072,0.21620816,0.023028845,-0.81311816,189.0,-0.077052705,-0.11815629,0.09535537,1.110070838605916,0.9763943248735403,147.7035101600644
-87.64716094,41.86949123,1.2600397,22.585472,14-52-56-170,1501876376173,2.6022017,-0.52375853,-0.38367185,222.0,-0.10954327,0.4043559,-0.41916737,0.22883585650733046,0.7615877569626953,148.4415257602626
-87.64716094,41.86949123,1.2600397,22.585472,14-52-56-269,1501876376270,0.05113086,-0.50097674,0.7655087,205.0,-0.2554845,0.21580411,-0.25511664,2.066870738132865,3.0615025218639853,148.55983829706554
-87.64716094,41.86949123,1.2600397,22.585472,14-52-56-372,1501876376372,-1.3375292,0.5058603,-0.36996335,205.0,-0.30235612,-0.12721105,0.12784594,2.7922927501620483,3.9044315352608914,150.20605049082207
-87.64716094,41.86949123,1.2600397,22.585472,14-52-56-469,1501876376470,-1.3328569,-0.99406344,-0.85190403,214.0,0.047583234,-0.3146976,-0.013834234,1.8273340829498135,3.5579321966847366,150.8479106878848
-87.64716094,41.86949123,1.2600397,22.585472,14-52-56-573,1501876376573,-0.120016634,-0.38059455,-0.49569264,239.0,0.03266953,-0.1959206,0.02291739,0.09174314095225095,3.5640377454724934,150.41954854389832
-87.64716094,41.86949123,1.2600397,22.585472,14-52-56-672,1501876376673,1.5877163,0.18610905,0.18854755,247.0,0.27235404,0.32552636,-0.047922697,-0.45961858373237896,3.7274028503710928,150.09305184119336
-87.64716094,41.86949123,1.2600397,22.585472,14-52-56-773,1501876376773,0.20892726,1.0915447,0.06497401,231.0,-0.045627408,0.26906732,0.074050084,0.535668791437357,3.91094155931356,148.74085197044928
-87.64716094,41.86949123,1.2600397,22.585472,14-52-56-871,1501876376873,-1.2951168,-0.016944403,-0.16894922,215.0,-0.110075906,-0.015890904,0.034102667,1.685069566831499,3.823750779463762,148.84146065692357
-87.64716094,41.86949123,1.2600397,22.585472,14-52-56-972,1501876376972,-1.5352186,0.39990684,-0.43688166,218.0,0.00390739,-0.20444272,0.21040393,1.194047907729517,2.9855879574470556,149.36147027919333
-87.64716094,41.86949123,1.2600397,22.585472,14-52-57-073,1501876377074,0.0539977,0.26556757,-0.9425886,234.0,-0.07225902,0.009675442,0.10547539,0.21214957096285708,2.0991450895084673,149.3675081664196
-87.64716252,41.86947996,1.322422,23.844082,14-52-57-171,1501876377173,2.0340288,-0.7732173,-1.0250597,256.0,-0.6288597,0.17958511,0.14329228,-0.30511282115666766,1.070778040971302,150.42575035566472
-87.64716252,41.86947996,1.322422,23.844082,14-52-57-271,1501876377274,1.3330612,-1.1277509,0.71003187,179.0,-0.18624231,0.41926962,-0.23967029,1.1534748765123486,0.559555723873037,152.96249627378575
-87.64716252,41.86947996,1.322422,23.844082,14-52-57-372,1501876377373,-1.1195742,-0.25793347,-0.09980827,179.0,-0.112739064,-0.11762366,0.0021447327,3.2075336738661506,1.530456709024036,153.81065550453957
-87.64716252,41.86947996,1.322422,23.844082,14-52-57-471,1501876377472,-1.9567807,-0.24257612,-1.1771468,187.0,0.08433486,-0.096851,-0.2151692,2.550859650267261,1.6206603493497498,154.11591031892578
-87.64716252,41.86947996,1.322422,23.844082,14-52-57-575,1501876377576,0.40231344,-0.3721607,0.30151495,196.0,-0.11060853,-0.052642528,0.19016391,2.4272599067164755,2.1689859082059635,154.3773153188406
-87.64716252,41.86947996,1.322422,23.844082,14-52-57-671,1501876377672,2.3267562,-0.43949798,1.0575664,189.0,0.43906793,0.12525663,-0.26204085,2.259192216574322,1.5357709163634232,154.66142386755632
-87.64716252,41.86947996,1.322422,23.844082,14-52-57-773,1501876377773,0.26719287,1.1145775,-1.0266347,195.0,-0.032844234,0.36866957,0.18750076,3.3001158208486157,3.1452769264683074,151.72292622245516
-87.64716252,41.86947996,1.322422,23.844082,14-52-57-873,1501876377873,-0.34114856,-0.30442172,0.07369279,178.0,-0.12445697,0.024589146,5.4683606E-4,4.95033925663859,2.4146097560433772,151.95192880494733
-87.64716252,41.86947996,1.322422,23.844082,14-52-57-973,1501876377974,-1.5152388,0.25890294,-0.50366527,178.0,0.15410969,-0.21616063,0.055940587,5.038298005883191,2.48735361858154,151.74629912979492
-87.64716459,41.86946874,1.3313527,25.101606,14-52-58-082,1501876378083,-0.23139341,0.42049238,-0.8060697,179.0,-0.08664008,-0.35251448,0.17258705,4.095689211739119,2.1828757382134194,151.39752235001743
-87.64716459,41.86946874,1.3313527,25.101606,14-52-58-218,1501876378219,1.5145798,0.024354717,-0.5837687,181.0,-0.3311183,0.018197559,0.12145435,1.2448418901527862,0.6670482271744927,152.8439788313077
-87.64716459,41.86946874,1.3313527,25.101606,14-52-58-274,1501876378275,1.5458308,-0.5848963,0.41790172,167.0,-0.030713705,0.1263219,-0.004246854,1.1832299553012746,0.279634054437978,153.8800502265069
-87.64716459,41.86946874,1.3313527,25.101606,14-52-58-376,1501876378376,-0.60954124,-0.01602315,0.56401926,168.0,0.20684028,0.22858728,-0.09639223,2.611860496631468,0.695186792285947,153.37710241678383
-87.64716459,41.86946874,1.3313527,25.101606,14-52-58-480,1501876378481,-1.927277,0.050533243,-0.47631022,172.0,0.19565499,-0.04092462,-0.002116325,3.192805438138076,1.1251816716492171,152.27521531874243
-87.64716459,41.86946874,1.3313527,25.101606,14-52-58-578,1501876378579,-0.22561719,-0.4823077,-0.777419,178.0,0.25158137,-0.123482615,-0.014899499,2.88012727534112,1.4993035758893731,150.92496888210093
-87.64716459,41.86946874,1.3313527,25.101606,14-52-58-677,1501876378678,1.49217,-0.19501287,0.40446094,188.0,0.2254824,-0.07448045,-5.184284E-4,1.7042503388464814,1.3788207464776405,149.49547859070896
-87.64716459,41.86946874,1.3313527,25.101606,14-52-58-779,1501876378780,1.4385158,0.112415545,-0.13120298,255.0,0.6755566,-0.1266784,0.0330374,-0.5104643795438051,1.6378276029417538,147.7814562788726
-87.64716459,41.86946874,1.3313527,25.101606,14-52-58-878,1501876378879,-0.8014147,0.5706054,-0.16185793,275.0,0.0145600345,0.5060887,-0.004246854,-1.549149335956774,1.830296037172072,144.48414147591393
-87.64716459,41.86946874,1.3313527,25.101606,14-52-58-977,1501876378978,-0.9905145,-0.03660411,0.9614739,218.0,0.22388451,-0.15117949,0.17418495,0.5588515206974382,1.9574750132913556,143.65499749180935
-87.64716671,41.86945871,1.1403947,26.228287,14-52-59-090,1501876379091,-0.12487977,0.27747917,-1.0384451,273.0,-0.050421096,-0.040391985,-0.097990125,-0.9667669597949957,1.1395981732747043,142.93885215733354
-87.64716671,41.86945871,1.1403947,26.228287,14-52-59-177,1501876379178,0.80480516,0.48699665,0.9669106,275.0,0.07261695,-0.14319001,0.041559517,-1.3307907495124052,1.4884999241697054,143.0562767695444
-87.64716671,41.86945871,1.1403947,26.228287,14-52-59-278,1501876379279,1.0712452,-0.2027525,0.021770649,281.0,-0.063204266,0.15401877,0.15873861,-1.35523930492476,1.2286903070347042,142.92069751451965
-87.64716671,41.86945871,1.1403947,26.228287,14-52-59-377,1501876379378,0.19459412,-0.48167446,1.5961168,251.0,0.0017768613,0.08104816,-0.19066812,-0.19152910979666957,0.5703504643302719,142.6938259510485
-87.64716671,41.86945871,1.1403947,26.228287,14-52-59-477,1501876379477,-0.88568527,0.15531571,0.6700859,213.0,0.35704255,0.005947017,-0.023954246,0.5562456968073725,1.6457408039820365,142.1068394937776
-87.64716671,41.86945871,1.1403947,26.228287,14-52-59-577,1501876379578,-0.26135072,-0.05554354,0.15225424,215.0,0.26649508,-0.04625094,-0.047922697,0.40741398048251704,1.463999822173458,140.45870118667517
-87.64716671,41.86945871,1.1403947,26.228287,14-52-59-679,1501876379680,0.10089163,-0.47566745,0.14588886,222.0,0.3064425,-0.109634176,0.012797377,0.23650279721152265,1.9277639038452117,138.86144778888934
-87.64716671,41.86945871,1.1403947,26.228287,14-52-59-778,1501876379779,0.65507644,-0.3228233,0.8320809,247.0,0.3671626,-0.20284483,0.02984161,-0.6043292680689102,1.6371395681045806,137.08106335907718
-87.64716671,41.86945871,1.1403947,26.228287,14-52-59-879,1501876379879,0.5646055,0.73162466,0.09436001,267.0,0.47635219,0.14496402,0.095888,-1.2906085331818087,1.4127865301681735,134.88444720124437
-87.64716671,41.86945871,1.1403947,26.228287,14-52-59-979,1501876379980,-0.14513905,0.8104468,0.91647077,219.0,0.74639666,-0.030804604,0.1917618,0.07141306287738815,1.3565742867423802,131.77611007224164
-87.64716802,41.86945033,0.9108787,27.165384,14-53-00-080,1501876380080,-0.33462006,0.80306894,0.46881178,201.0,0.6308155,0.22272833,-0.0015836929,0.1950091045190043,0.6281050498480188,127.76521808593503
-87.64716802,41.86945033,0.9108787,27.165384,14-53-00-180,1501876380181,0.33283645,0.39136213,1.1731318,157.0,0.79539883,0.009675442,0.019721596,1.4092408082152907,0.9051219412146919,123.83867893587808
-87.64716802,41.86945033,0.9108787,27.165384,14-53-00-281,1501876380284,-0.19969155,0.29303,-0.17430852,156.0,0.47741744,-0.049979366,0.011732113,0.9277134322247438,0.6763682337403868,119.66938120234056
-87.64716802,41.86945033,0.9108787,27.165384,14-53-00-380,1501876380381,0.3623492,0.12293176,0.40880927,164.0,0.38846785,0.025121778,-0.054314286,0.6299268960874139,0.6699230964848335,116.93162281694606
-87.64716802,41.86945033,0.9108787,27.165384,14-53-00-480,1501876380481,0.5346298,-0.0032741753,0.24239533,169.0,0.5333438,-0.015890904,-0.08360906,0.7353617515405505,1.0336623661346296,114.20822831937602
-87.64716802,41.86945033,0.9108787,27.165384,14-53-00-581,1501876380585,0.15184742,-0.24277738,0.4125513,182.0,0.5269522,-0.06649096,-0.17522179,0.5241935933840596,1.5153288005078096,111.00772461771311
-87.64716802,41.86945033,0.9108787,27.165384,14-53-00-682,1501876380682,-0.3901124,-0.6867074,0.8003669,195.0,0.5631712,-0.22841117,-0.034074258,0.12048463034051748,2.195798456123083,107.9271112265514
-87.64716802,41.86945033,0.9108787,27.165384,14-53-00-783,1501876380785,0.10816388,-0.6513142,0.039080832,205.0,0.6734261,0.16147561,-0.025552142,-0.46767847375725846,2.5005871100984396,104.668093294269
-87.64716802,41.86945033,0.9108787,27.165384,14-53-00-883,1501876380884,0.54300755,-0.453281,0.6733005,191.0,0.7991273,-0.15757108,-0.11556699,-0.022775265787407517,2.5762709421874703,100.70385833018281
-87.64716802,41.86945033,0.9108787,27.165384,14-53-00-982,1501876380983,-0.23155995,-0.76483655,-0.28943348,202.0,0.8023231,0.013403867,-0.1704281,-0.9241783824424391,3.179974500895384,96.2230561591685
-87.64716812,41.86944718,0.29614186,27.514006,14-53-01-084,1501876381085,0.04891639,-0.7584112,-0.020823542,197.0,0.6712955,0.05921024,0.017591067,-1.0143155351454511,3.753468132904331,90.94087472302579
-87.64716812,41.86944718,0.29614186,27.514006,14-53-01-182,1501876381184,0.29655573,-0.81162184,-0.09598571,195.0,0.46783006,0.03311126,-0.016497396,-1.0940100756594542,3.6709005373489854,88.13497154028198
-87.64716812,41.86944718,0.29614186,27.514006,14-53-01-283,1501876381284,0.17676984,-0.84510136,0.29817104,193.0,0.46889532,-0.005770892,0.009601584,-1.1167349688017327,3.566033227927195,85.43800304461075
-87.64716812,41.86944718,0.29614186,27.514006,14-53-01-381,1501876381382,0.18099524,-0.4290855,0.37617573,190.0,0.46143848,0.0022185913,-0.02715004,-1.1028226205143572,3.6169437504531774,82.93637795920188
-87.64716812,41.86944718,0.29614186,27.514006,14-53-01-482,1501876381483,0.08589855,-0.25439548,0.120658875,193.0,0.35544467,-0.065958336,0.03996162,-1.4335809343745716,3.484029336421787,80.47207302741799
-87.64716812,41.86944718,0.29614186,27.514006,14-53-01-585,1501876381585,0.08038642,-0.17760527,0.11023646,199.0,0.46889532,-0.019086696,-0.0010510606,-1.8901058692997579,3.195834840478388,78.07790730822092
-87.64716812,41.86944718,0.29614186,27.514006,14-53-01-687,1501876381688,-0.006758014,-0.3772811,0.16900767,201.0,0.45984057,-0.018554065,0.012797377,-2.196816367752827,3.064473227266118,75.40547968223751
-87.64716812,41.86944718,0.29614186,27.514006,14-53-01-785,1501876381786,0.086343594,-0.31957313,-0.028663184,202.0,0.5317459,0.00914281,0.03676583,-2.3574184476887448,2.8703650140264676,72.60022536746493
-87.64716812,41.86944718,0.29614186,27.514006,14-53-01-887,1501876381889,0.1899265,-0.4272563,0.322707,203.0,0.4449269,-0.015890904,5.4683606E-4,-2.3755611376715913,2.491937956175088,69.1896250469324
-87.64716812,41.86944718,0.29614186,27.514006,14-53-01-986,1501876381987,0.015864842,-0.46645656,0.021288551,204.0,0.36982572,0.02565441,1.4203833E-5,-2.4930030387987867,2.2917869465106806,66.7615269479387
-87.64717693,41.86944854,0.0,27.455011,14-53-02-088,1501876382088,0.1412378,-0.43295306,0.060170382,202.0,0.41296893,0.038437583,-0.018627925,-2.4094890351565716,2.2039511406711396,64.90646122974158
-87.64717693,41.86944854,0.0,27.455011,14-53-02-185,1501876382187,0.15379311,-0.517044,0.034450475,196.0,0.2648972,0.03311126,-0.033008993,-2.1622372544191677,2.245169411321463,62.538981059631794
-87.64717693,41.86944854,0.0,27.455011,14-53-02-292,1501876382293,0.14530279,-0.5724973,-0.01975483,191.0,0.30111617,0.045894437,-0.039933212,-1.9956143627298837,2.368437250367268,60.67714662396719
-87.64717693,41.86944854,0.0,27.455011,14-53-02-388,1501876382390,0.31367588,-0.37027776,-0.21914822,183.0,0.0023094935,0.044296537,-0.09479433,-1.746220357192329,2.6499488330946326,59.353012000522654
-87.64717693,41.86944854,0.0,27.455011,14-53-02-487,1501876382488,0.11207819,-0.24115542,-0.06385298,182.0,0.07261695,-0.063827805,0.009601584,-1.8445892752273814,2.9037546072274867,59.1459616460229
-87.64717693,41.86944854,0.0,27.455011,14-53-02-586,1501876382587,0.16326638,-0.32065797,0.118722595,180.0,-0.025387382,0.036307056,-0.14699228,-1.9642930361869093,3.2965826920570147,58.980889634162
-87.64717693,41.86944854,0.0,27.455011,14-53-02-687,1501876382688,0.24295914,-0.1530064,0.15347451,177.0,-0.029115807,-0.14851634,0.1139975,-1.9515165270141657,3.6700787802144683,59.17337119516213
-87.64717693,41.86944854,0.0,27.455011,14-53-02-787,1501876382788,-0.027036408,-0.3195633,0.06841993,191.0,-0.0024841966,-0.07448045,-0.014899499,-2.7788315145250113,3.163762193126712,59.44298608245924
-87.64717693,41.86944854,0.0,27.455011,14-53-02-887,1501876382887,-0.07295508,-0.59689426,-0.041538935,192.0,0.028408471,0.040568113,-0.059107974,-3.0509093253481185,3.2665176934344995,59.38066743647204
-87.64717693,41.86944854,0.0,27.455011,14-53-02-988,1501876382990,0.19544649,-0.63561517,0.2516714,189.0,0.031071633,-0.018021433,0.018656332,-2.890754836246248,3.5084686070457387,59.216544820905824
-87.64717639,41.8694511,0.0,27.167206,14-53-03-087,1501876383088,0.08459684,-0.5422775,0.056209736,190.0,-0.012071577,0.010208075,1.4203833E-5,-2.9585133010205364,3.3898252329548555,59.12708300315694
-87.64717639,41.8694511,0.0,27.167206,14-53-03-192,1501876383193,0.06467859,-0.41864073,0.14635254,189.0,0.035865325,0.02299125,-0.015432131,-2.870446976296508,3.449790024999336,58.980623256784384
-87.64717639,41.8694511,0.0,27.167206,14-53-03-295,1501876383296,0.11288357,-0.48182672,0.119745575,188.0,-0.016332634,0.009675442,0.049549002,-2.7738431285533744,3.4105243346779908,58.88556068391614
-87.64717639,41.8694511,0.0,27.167206,14-53-03-387,1501876383388,0.2052417,-0.504093,0.22416185,189.0,-0.027517911,0.021393351,-0.012236338,-2.6543549454395254,3.211979700129006,58.98782910635873
-87.64717639,41.8694511,0.0,27.167206,14-53-03-487,1501876383487,0.12565048,-0.48990053,0.3765943,188.0,0.025212679,-0.030271973,0.039428987,-2.577383836135359,3.1882614413493133,59.1883293094445
-87.64717639,41.8694511,0.0,27.167206,14-53-03-587,1501876383592,0.058490645,-0.5974469,-0.01194666,192.0,-0.0653348,-0.013760376,0.017058436,-2.798272794223806,2.995170926295995,59.21258331118719
-87.64717639,41.8694511,0.0,27.167206,14-53-03-688,1501876383688,0.04499682,-0.46631864,0.0322836,194.0,0.010831609,0.032045998,-0.0074426476,-2.846436300042974,2.8990483934459363,59.483728160858334
-87.64717639,41.8694511,0.0,27.167206,14-53-03-786,1501876383787,0.22224116,-0.39284757,0.19430219,193.0,-0.013136841,-0.020151962,0.0064057903,-2.7213849278501496,2.892367828107429,59.46994483911328
-87.64717639,41.8694511,0.0,27.167206,14-53-03-892,1501876383893,0.1280713,-0.4487137,0.18433784,194.0,0.04651797,-0.027608812,-0.006377383,-2.7889179963818274,2.884204684832206,59.49813302981789
-87.64717639,41.8694511,0.0,27.167206,14-53-03-990,1501876383990,0.17675416,-0.39120317,0.14661251,196.0,0.0023094935,-0.035598297,-0.023421615,-3.0316072107536627,2.8805210784354536,59.26450640925765
-87.64717297,41.86944937,0.0,27.32022,14-53-04-090,1501876384090,0.1561123,-0.3222205,0.3026561,195.0,0.03266953,-0.019619329,0.007471055,-3.0394559518836535,2.979359465254239,59.138762626637686
-87.64717297,41.86944937,0.0,27.32022,14-53-04-192,1501876384192,0.076498285,-0.4727354,0.17068228,197.0,0.00390739,8.806237E-5,-0.020225821,-3.17687658321996,2.9098565274772468,59.11330651160108
-87.64717297,41.86944937,0.0,27.32022,14-53-04-293,1501876384295,0.12816818,-0.23219346,0.28534046,195.0,0.023614783,0.0027512235,-0.010105809,-3.0983003794608406,3.0287767376729273,59.06536541381672
-87.64717297,41.86944937,0.0,27.32022,14-53-04-394,1501876384395,0.188365,-0.4076441,0.2349189,194.0,0.0055052866,-0.022815123,-0.0015836929,-3.114180142394297,3.054158574402341,58.95621899087996
-87.64717297,41.86944937,0.0,27.32022,14-53-04-492,1501876384493,0.102244034,-0.41923878,0.079510145,197.0,-0.031246338,-0.05583832,0.030906871,-3.332972872737785,3.0207096439329075,58.98338948339824
-87.64717297,41.86944937,0.0,27.32022,14-53-04-593,1501876384593,0.07188278,-0.339437,-0.010107239,202.0,0.006570551,-0.04358778,-0.0026489573,-3.7615286098985923,2.8907083055825273,59.17108991197938
-87.64717297,41.86944937,0.0,27.32022,14-53-04-695,1501876384695,0.17403845,-0.3837891,0.23132023,203.0,-0.08770535,-0.03453303,0.014395274,-3.8969046667955376,2.8947835806394977,59.43917483690234
-87.64717297,41.86944937,0.0,27.32022,14-53-04-796,1501876384798,0.26855382,-0.40748265,0.2038606,206.0,0.033734795,-0.035598297,-0.007975279,-4.147507295651067,2.762175244460289,59.70316164832337
-87.64717297,41.86944937,0.0,27.32022,14-53-04-893,1501876384893,0.061995104,-0.31887075,0.21901116,208.0,-0.04935583,-0.15064687,0.004807894,-4.541296729606275,2.7858143157342914,59.64044685136429
-87.64717297,41.86944937,0.0,27.32022,14-53-04-994,1501876384996,0.14377877,-0.32404566,0.14894456,211.0,0.037995853,-0.045185678,-0.014899499,-5.091740821043956,2.7877084125685005,59.75169697256547
-87.64717141,41.86944839,0.0,27.412203,14-53-05-116,1501876385117,0.1156531,-0.33011544,0.14531295,212.0,0.003374758,-0.04838147,-0.0074426476,-5.348459884301232,2.8430374271572467,59.62657473716001
-87.64717141,41.86944839,0.0,27.412203,14-53-05-215,1501876385216,0.06452062,-0.3499824,0.11280335,213.0,0.0017768613,-0.1378637,0.026113182,-5.860849576778188,2.916859819254037,59.52970216416173
-87.64717141,41.86944839,0.0,27.412203,14-53-05-294,1501876385295,0.105690464,-0.37493074,-0.12602228,216.0,0.045452703,-0.0984489,-0.007975279,-6.546638562374726,2.8528487804565583,59.509908275947
-87.64717141,41.86944839,0.0,27.412203,14-53-05-396,1501876385396,0.06630988,-0.31678024,0.05621967,218.0,0.007635815,-0.11016681,0.015460538,-7.165156161062162,2.835818984421601,59.2536942198015
-87.64717141,41.86944839,0.0,27.412203,14-53-05-495,1501876385496,0.039961588,-0.48702592,0.0037235008,220.0,0.03959375,-0.051577263,0.0080036875,-7.775556506807862,2.722114690874283,59.17988036544119
-87.64717141,41.86944839,0.0,27.412203,14-53-05-598,1501876385599,0.19840138,-0.3793361,0.25832328,221.0,0.015625298,-0.108568914,0.017591067,-8.187205177895361,2.6113674423507574,59.10769892629247
-87.64717141,41.86944839,0.0,27.412203,14-53-05-703,1501876385704,0.09817648,-0.3704495,0.13582827,223.0,0.012962138,-0.116558395,0.035700563,-8.59345543821761,2.509182689725489,59.074736433358
-87.64717141,41.86944839,0.0,27.412203,14-53-05-799,1501876385799,0.21316215,-0.4612926,0.2545624,225.0,-0.009408416,-0.116558395,-0.021823717,-9.0710111659275,2.350272789156442,59.14157666457572
-87.64717141,41.86944839,0.0,27.412203,14-53-05-899,1501876385900,0.075737916,-0.266243,0.12966539,225.0,-0.027517911,-0.1975185,-0.034606893,-9.908817537446897,2.584249030024868,59.20326010297015
-87.64717141,41.86944839,0.0,27.412203,14-53-06-006,1501876386007,0.25431505,-0.42154047,0.31070465,225.0,0.026810575,-0.20923641,-0.014899499,-10.788371732720703,2.713068959092247,59.42020057138808
-87.64717141,41.86944839,0.0,27.412203,14-53-06-173,1501876386174,0.045634147,-0.3528133,-0.015324444,226.0,-0.007810519,-0.018021433,0.012797377,-11.833674982356857,2.8540429963442526,59.21687950017514
-87.64717026,41.86944772,0.0,27.474697,14-53-06-237,1501876386237,0.20388016,-0.41780156,0.16850568,226.0,0.01828846,-0.033467766,-0.018627925,-11.926448588079493,2.8143803012774002,59.25026546483815
-87.64717026,41.86944772,0.0,27.474697,14-53-06-303,1501876386303,0.06458122,-0.33971506,-0.046407476,226.0,-3.5366768E-4,-0.036130928,-0.026617408,-12.155329934713913,2.902406498640055,59.135750513213736
-87.64717026,41.86944772,0.0,27.474697,14-53-06-451,1501876386451,0.18813848,-0.24490194,0.11242977,226.0,0.012429506,-0.20177956,0.0080036875,-13.096164587221075,2.9994355256590217,59.328040828917096
-87.64717026,41.86944772,0.0,27.474697,14-53-06-503,1501876386504,0.15255143,-0.27767903,0.15941137,227.0,-0.03870319,-0.23640065,0.031439506,-13.800540651983333,2.9607629945784093,59.37734796453543
-87.64717026,41.86944772,0.0,27.474697,14-53-06-603,1501876386604,0.13315341,-0.45981032,0.055360153,229.0,-0.02485475,-0.16129951,0.025580551,-14.861400511227837,2.804491681463103,59.703489497403496
-87.64717026,41.86944772,0.0,27.474697,14-53-06-703,1501876386704,0.19388507,-0.2216428,-0.06628082,229.0,-0.053084258,-0.100579426,0.025580551,-15.584070383908328,2.73648818365234,59.58493790397961
-87.64717026,41.86944772,0.0,27.474697,14-53-06-803,1501876386803,0.111303,-0.45217052,0.23463139,230.0,0.037995853,-0.051577263,-0.011703705,-16.03778448254664,2.7262113102724097,59.90164011541475
-87.64717026,41.86944772,0.0,27.474697,14-53-06-902,1501876386903,0.10145574,-0.37040558,0.13151096,230.0,-0.057877947,-0.045185678,0.027711079,-16.206408192775918,2.740181395002613,59.886880076618354
-87.64717026,41.86944772,0.0,27.474697,14-53-07-005,1501876387006,0.18566552,-0.30718488,-0.16641285,231.0,-0.12019592,-0.12188472,-0.011703705,-17.28817013842795,2.731983033564482,60.204845873049976
-87.64716882,41.86944956,0.0,27.257864,14-53-07-109,1501876387110,0.09115557,-0.36589798,-0.070779055,232.0,-0.057345316,-0.13253736,0.042624783,-18.12414089660791,2.8172652024280844,60.780173197407635
-87.64716882,41.86944956,0.0,27.257864,14-53-07-204,1501876387207,0.22851332,-0.33114097,0.24466808,233.0,-0.02485475,-0.17355005,0.002677365,-18.703178721232202,2.7195557178130554,60.99589106196413
-87.64716882,41.86944956,0.0,27.257864,14-53-07-306,1501876387307,0.08085477,-0.34421316,0.08950166,233.0,0.0071031833,-0.035598297,0.020254228,-19.160526480508963,2.7411700648849724,61.11269412696055
-87.64716882,41.86944956,0.0,27.257864,14-53-07-408,1501876387409,-0.0116180675,-0.3138724,-0.11499589,233.0,0.016690563,0.12419137,0.047951102,-19.15700551799182,2.591130445613656,61.0895192951067
-87.64716882,41.86944956,0.0,27.257864,14-53-07-506,1501876387507,0.050599687,-0.3425447,-0.17166328,234.0,-0.012071577,0.39956224,0.039428987,-17.89498804995398,2.2541822728181176,60.98182770246308
-87.64716882,41.86944956,0.0,27.257864,14-53-07-608,1501876387609,0.086779475,-0.41349328,0.23930994,233.0,-0.009408416,0.32712424,-0.0037142218,-15.631080868418234,2.157518447476335,60.995030458128724
-87.64716882,41.86944956,0.0,27.257864,14-53-07-709,1501876387710,0.06493256,-0.33595172,0.06726599,232.0,-0.01047368,0.37985483,0.0032099972,-13.600997529155057,2.1746538980000163,60.91159286722785
-87.64716882,41.86944956,0.0,27.257864,14-53-07-807,1501876387807,0.19988638,-0.37142694,0.09927053,231.0,0.03266953,0.29569894,-0.010105809,-11.770470973098497,2.059654002944512,60.85251173090728
-87.64716882,41.86944956,0.0,27.257864,14-53-07-906,1501876387907,0.15187436,-0.3783608,0.16781397,229.0,0.020951621,0.25575152,-0.03886795,-10.091350927920903,2.1529183150703317,60.70375704097353
-87.64716882,41.86944956,0.0,27.257864,14-53-08-007,1501876388008,0.2221727,-0.38344887,0.13678895,226.0,-0.018463165,0.27812207,-0.023421615,-8.505329776225167,2.266597422295085,60.54538544468846
-87.64716644,41.86945028,0.0,27.156534,14-53-08-108,1501876388108,0.14508374,-0.35559565,0.10708604,222.0,-0.005147358,0.28398103,-0.027682673,-6.886285940552889,2.3660955626990114,60.571497257885426
-87.64716644,41.86945028,0.0,27.156534,14-53-08-207,1501876388207,0.0883315,-0.3315864,-0.0062855226,216.0,-0.06640006,0.4437707,0.011732113,-5.336355508431501,2.472219840371496,60.59008903280619
-87.64716644,41.86945028,0.0,27.156534,14-53-08-307,1501876388308,0.21865702,-0.33298096,0.410472,204.0,-0.061073743,0.13218085,0.020254228,-3.0763880653863818,2.3274014738338313,60.92077947166155
-87.64716644,41.86945028,0.0,27.156534,14-53-08-409,1501876388410,0.038105592,-0.3721465,-0.053376783,194.0,-0.036040027,0.22006516,-0.03673742,-2.1626270020886817,2.330850505921276,61.1337584303609
-87.64716644,41.86945028,0.0,27.156534,14-53-08-510,1501876388510,0.045496386,-0.3919166,-0.17000978,169.0,-0.008343151,0.3329832,-0.042063743,-0.8150876148752003,2.5349239651599746,61.11417627801046
-87.64716644,41.86945028,0.0,27.156534,14-53-08-612,1501876388612,0.124571964,-0.4287165,0.2201538,125.0,0.057703245,0.3681369,-0.024486879,1.3447623283464893,2.767770236607587,61.02353966772438
-87.64716644,41.86945028,0.0,27.156534,14-53-08-708,1501876388709,0.1612114,-0.22088943,0.009871559,103.0,0.029473737,0.22485885,-0.013301602,3.0502971696437564,2.8073112689298485,60.46784230704128
-87.64716644,41.86945028,0.0,27.156534,14-53-08-808,1501876388809,0.07328616,-0.36238465,0.3773729,91.0,-0.005147358,0.17372616,0.010666848,4.782939004044394,2.872704353817197,60.3769666401343
-87.64716644,41.86945028,0.0,27.156534,14-53-08-908,1501876388909,0.14582917,-0.33326215,0.06869331,88.0,0.01349477,0.10448398,-0.002116325,5.469665006217694,2.8003545078167793,60.389329282532
-87.64716644,41.86945028,0.0,27.156534,14-53-09-009,1501876389009,0.1031865,-0.262214,0.14133868,86.0,-0.013669474,-0.047316205,0.014927905,5.711096398565188,2.7992394794347746,60.30716210681675
-87.64716533,41.86944962,0.0,27.219727,14-53-09-109,1501876389110,0.022695398,-0.29412517,0.02355656,87.0,0.001244229,-0.027076181,-0.008507912,5.495121548141154,2.815277190492788,60.310946031616936
-87.64716533,41.86944962,0.0,27.219727,14-53-09-213,1501876389214,0.022764184,-0.33031467,-0.004742464,87.0,-0.023256853,0.02299125,0.0037426294,5.493656899451009,2.801540612854834,60.36163286544763
-87.64716533,41.86944962,0.0,27.219727,14-53-09-313,1501876389313,0.22722246,-0.32990846,0.31505698,87.0,0.029473737,-0.039859354,-0.009040544,5.456251368461435,2.7484551019650256,60.397498188779366
-87.64716533,41.86944962,0.0,27.219727,14-53-09-413,1501876389413,0.0637473,-0.33089453,-0.13365445,88.0,0.0055052866,0.08317869,0.0058731586,5.343407678749538,2.8021698440321217,60.310973352373594
-87.64716533,41.86944962,0.0,27.219727,14-53-09-514,1501876389515,0.07520018,-0.2839046,0.20131896,86.0,0.01615793,0.12046295,-0.030878466,5.841535509352684,2.806493140333328,60.25516387666545
-87.64716533,41.86944962,0.0,27.219727,14-53-09-615,1501876389616,0.08745186,-0.3474429,0.15650557,84.0,0.019353725,0.19875988,-0.0612385,6.497814662640183,2.9006630928544097,60.20232553324621
-87.64716533,41.86944962,0.0,27.219727,14-53-09-720,1501876389721,0.13492581,-0.29418552,0.2211895,83.0,-0.0088757835,0.06933025,0.0021447327,7.682693254852369,3.23911518792782,60.091908695123834
-87.64716533,41.86944962,0.0,27.219727,14-53-09-817,1501876389818,0.09800111,-0.28876343,0.3402821,83.0,7.115968E-4,-0.007368789,-0.0037142218,7.866171772752775,3.252549316251589,60.120554508502835
-87.64716533,41.86944962,0.0,27.219727,14-53-09-919,1501876389920,0.0066840104,-0.31169423,0.18126719,83.0,0.016690563,0.038970217,0.0058731586,7.844932445754974,3.233840574341278,60.102393035499745
-87.64716533,41.86944962,0.0,27.219727,14-53-10-019,1501876390019,0.13842507,-0.2653714,0.16381575,82.0,0.031071633,-0.09205731,0.020786861,7.86238272531071,3.1975402533367756,60.01436555747665
-87.64716383,41.86944993,0.0,27.172855,14-53-10-121,1501876390125,0.21371365,-0.2926493,0.21570723,83.0,0.04918113,-0.2651628,0.034635298,6.99006212725477,3.05192552943057,59.732859310834556
-87.64716383,41.86944993,0.0,27.172855,14-53-10-223,1501876390225,0.14001803,-0.36186543,0.2051982,87.0,0.048648495,-0.34878606,0.06978902,5.310771754234748,2.747560987513989,59.59677462181122
-87.64716383,41.86944993,0.0,27.172855,14-53-10-325,1501876390326,0.1486047,-0.37226337,0.15484324,95.0,0.04278954,-0.31736076,0.052212164,3.4112730941657534,2.4314724258870806,59.450560762248756
-87.64716383,41.86944993,0.0,27.172855,14-53-10-423,1501876390423,0.34478113,-0.47444877,-0.08213214,121.0,-0.0062126224,-0.35251448,-0.01756266,1.125752526053442,2.097008307515311,59.565690430898485
-87.64716383,41.86944993,0.0,27.172855,14-53-10-523,1501876390524,-0.16661404,-0.33662558,0.12057003,159.0,-0.018995795,-0.19059429,0.024515286,-0.36304064268332426,2.2099843321423767,59.44337540324193
-87.64716383,41.86944993,0.0,27.172855,14-53-10-624,1501876390625,0.11305502,-0.31783348,-0.08396575,180.0,-8.862999E-4,-4.4456986E-4,0.019188963,-1.15528871862381,1.9987274348875286,59.62690941642933
-87.64716383,41.86944993,0.0,27.172855,14-53-10-723,1501876390724,0.052300982,-0.23849562,0.13982368,182.0,0.050779026,-0.01216248,0.014395274,-1.238225251116042,1.9482000432853015,59.477717594388764
-87.64716383,41.86944993,0.0,27.172855,14-53-10-825,1501876390826,0.15711224,-0.3217088,0.057630226,183.0,0.16795813,0.07572184,-0.025552142,-1.251994805761082,1.8900448244840509,59.0680155272147
-87.64716383,41.86944993,0.0,27.172855,14-53-10-925,1501876390927,0.1752296,-0.26631802,0.27330336,175.0,0.17008865,-0.027076181,-0.013301602,-1.0034880844853942,1.996087353329907,57.99152990269647
-87.64716383,41.86944993,0.0,27.172855,14-53-11-025,1501876391025,0.20554012,-0.2464498,0.17322779,179.0,0.21269923,-0.070752025,-0.017030027,-1.275164941859881,2.0190559988481906,57.020434097071586
-87.64716538,41.86944925,0.0,27.261032,14-53-11-129,1501876391130,0.15358812,-0.32129833,0.1020571,188.0,0.21216659,-0.054240424,0.010666848,-1.8010041305862374,1.9800980939263189,55.79045363133571
-87.64716538,41.86944925,0.0,27.261032,14-53-11-227,1501876391227,0.18240006,-0.25265422,0.18724343,194.0,0.19405709,-0.07554571,0.0032099972,-2.1926057695729253,1.8776851702940898,54.63382256709656
-87.64716538,41.86944925,0.0,27.261032,14-53-11-325,1501876391326,0.029148381,-0.29742593,0.13967143,200.0,0.1972529,-0.094720475,0.007471055,-2.6590831438924667,1.7898063556071189,53.51898201529417
-87.64716538,41.86944925,0.0,27.261032,14-53-11-426,1501876391427,0.12382997,-0.36325303,0.18279538,201.0,0.252114,-0.04625094,-0.050053224,-2.979797237691354,1.8358957250744246,52.26805335937382
-87.64716538,41.86944925,0.0,27.261032,14-53-11-526,1501876391527,0.17961667,-0.3747495,0.3123929,198.0,0.3197583,-0.07394782,-0.03247636,-3.155462019181266,2.010494143280168,50.67638022613994
-87.64716538,41.86944925,0.0,27.261032,14-53-11-629,1501876391630,0.16297922,-0.33410233,0.26075196,199.0,0.29099616,-0.045185678,0.0016121005,-3.4875270336070683,1.9842312121478227,49.04965456208549
-87.64716538,41.86944925,0.0,27.261032,14-53-11-728,1501876391729,0.04938447,-0.37425578,0.14152297,201.0,0.28034353,-0.06009938,-0.004779486,-3.775759309034314,1.8789135371276342,47.37815017783248
-87.64716538,41.86944925,0.0,27.261032,14-53-11-828,1501876391828,0.1468823,-0.38848388,0.21181698,200.0,0.38367417,0.003816488,-0.020758454,-3.856504097854912,1.815976118690317,45.632627033544
-87.64716538,41.86944925,0.0,27.261032,14-53-11-928,1501876391929,0.1693833,-0.26489824,0.20016599,200.0,0.31922567,-0.09205731,0.021319494,-3.938563698090738,1.6884929857095563,43.40332159034352
-87.64716538,41.86944925,0.0,27.261032,14-53-12-029,1501876392029,0.13883132,-0.24573019,0.20608212,203.0,0.1775455,-0.10590575,0.021319494,-4.452171725560894,1.4740605840991812,41.83974444026046
-87.64716597,41.86944863,0.0,27.334627,14-53-12-129,1501876392130,0.049277607,-0.31980693,0.21456762,207.0,0.15464231,-0.06755623,0.009068951,-4.964945616178663,1.2699528671929265,40.965077245337795
-87.64716597,41.86944863,0.0,27.334627,14-53-12-230,1501876392230,0.1137374,-0.25331903,0.020415058,208.0,0.16795813,-0.03186987,-0.006910015,-5.3540132549832755,1.159234967138491,39.92742807644032
-87.64716597,41.86944863,0.0,27.334627,14-53-12-330,1501876392331,0.11478996,-0.26843986,0.21710333,208.0,0.15357704,0.001685959,0.0064057903,-5.520387271654678,1.0639650339959201,38.98788432968627
-87.64716597,41.86944863,0.0,27.334627,14-53-12-432,1501876392432,0.21259642,-0.182413,0.23368071,208.0,0.19672026,-0.0068361564,-0.011171073,-5.504137824732394,0.9488007875135119,37.96936310555941
-87.64716597,41.86944863,0.0,27.334627,14-53-12-531,1501876392531,0.13833822,-0.18978073,0.20011425,207.0,0.21323186,-4.4456986E-4,-0.025552142,-5.377053190601021,0.9433669451419436,36.77642617078703
-87.64716597,41.86944863,0.0,27.334627,14-53-12-632,1501876392632,0.040775035,-0.23187779,0.22778991,205.0,0.16316444,-0.021217227,-0.01756266,-5.364684144900951,1.0333588496033872,35.73457643554997
-87.64716597,41.86944863,0.0,27.334627,14-53-12-732,1501876392733,0.09984678,-0.26670226,0.06440882,204.0,0.085932754,0.010740707,-0.01276897,-5.425757135138267,1.0226894537895925,35.02865247916708
-87.64716597,41.86944863,0.0,27.334627,14-53-12-832,1501876392833,0.15375395,-0.2840533,0.3427892,203.0,0.009766344,-0.008966685,-0.006377383,-5.3115918038219725,1.0893170953694207,34.67214051015452
-87.64716597,41.86944863,0.0,27.334627,14-53-12-933,1501876392933,0.08978889,-0.3414955,0.022707738,204.0,-0.06480216,-0.010031951,0.0138626415,-5.39452011874286,1.0440125573264318,34.639266809679214
-87.64716597,41.86944863,0.0,27.334627,14-53-13-035,1501876393035,0.099688575,-0.3066987,0.20222467,204.0,-0.11060853,-0.0047056274,0.0016121005,-5.362049826315442,1.0503208773551733,35.028843724463854
-87.64716616,41.86944794,0.0,27.4125,14-53-13-133,1501876393133,0.1862452,-0.26655692,0.17139912,204.0,-0.21287392,0.04269864,0.0032099972,-5.280096520898574,1.0673319970916189,35.882791540539245
-87.64716616,41.86944794,0.0,27.4125,14-53-13-248,1501876393248,0.15534875,-0.29005316,0.09412335,205.0,-0.4733311,-0.04838147,0.049549002,-5.118001190855363,1.163499353058106,37.95753321791693
-87.64716616,41.86944794,0.0,27.4125,14-53-13-335,1501876393336,0.13215679,-0.31960195,0.14321736,208.0,-0.42219839,-0.020684594,0.035167933,-5.27922865998716,1.1154349917036088,40.12400092075325
-87.64716616,41.86944794,0.0,27.4125,14-53-13-435,1501876393439,0.13360564,-0.28371614,0.2791195,210.0,-0.30129087,0.028850203,0.038363725,-5.025784672436905,1.1769461812648627,42.460991126408146
-87.64716616,41.86944794,0.0,27.4125,14-53-13-536,1501876393536,0.07591032,-0.27231318,0.22754137,211.0,-0.2405708,0.058144975,0.036233194,-4.811222817397417,1.1087502642185763,44.205995176319675
-87.64716616,41.86944794,0.0,27.4125,14-53-13-635,1501876393636,0.15791854,-0.17492571,0.054619934,212.0,-0.25921294,0.061873402,0.014927905,-4.444067279223851,1.071888480319958,45.58745216237355
-87.64716616,41.86944794,0.0,27.4125,14-53-13-735,1501876393736,0.21090387,-0.23440981,0.24558866,211.0,-0.2240592,0.039502848,-0.011171073,-4.069637589584222,1.1367042007790287,47.085903458720566
-87.64716616,41.86944794,0.0,27.4125,14-53-13-836,1501876393836,0.07307547,-0.31413257,0.168704,210.0,-0.21713498,0.051220756,-0.0010510606,-3.8047658417788885,1.2449011206994949,48.402658062766875
-87.64716616,41.86944794,0.0,27.4125,14-53-13-936,1501876393937,0.07041471,-0.24744149,-0.04410576,210.0,-0.2240592,0.072526045,0.031972136,-3.5728168864334866,1.2917976264276254,49.59656146930678
-87.64716616,41.86944794,0.0,27.4125,14-53-14-037,1501876394038,0.13389875,-0.2739541,0.2656316,210.0,-0.16760018,0.027252307,0.019188963,-3.20412348847961,1.2079430738222616,50.795358706386935
-87.64716643,41.86944758,0.0,27.45463,14-53-14-138,1501876394139,0.11621951,-0.3006059,0.23716053,210.0,-0.1729265,-0.027608812,0.0138626415,-3.085557167460301,1.2004287985181898,51.753514718629276
-87.64716643,41.86944758,0.0,27.45463,14-53-14-238,1501876394239,0.21101949,-0.22891039,0.098274544,213.0,-0.22672236,-0.02228249,0.011732113,-3.160790847394345,1.1132983164321586,52.815479360972006
-87.64716643,41.86944758,0.0,27.45463,14-53-14-339,1501876394339,0.10173673,-0.30684066,0.17890956,214.0,-0.20168865,-0.037196193,0.010134216,-3.2258161692835707,1.1532205586874715,54.06386718652112
-87.64716643,41.86944758,0.0,27.45463,14-53-14-440,1501876394441,0.11749763,-0.3768431,0.12820905,216.0,-0.21766761,-0.032402504,0.009068951,-3.2955560292473973,1.164373937436985,55.57950665391445
-87.64716643,41.86944758,0.0,27.45463,14-53-14-537,1501876394538,0.18607,-0.24044307,0.16400197,216.0,-0.14842543,8.806237E-5,0.041026887,-3.2244206762587724,1.1731234097637713,56.47147471800474
-87.64716643,41.86944758,0.0,27.45463,14-53-14-637,1501876394638,0.07000977,-0.2844795,0.1383352,220.0,-0.19529706,0.02831757,0.035167933,-3.08898762997094,0.9777786121192314,57.405718237962844
-87.64716643,41.86944758,0.0,27.45463,14-53-14-740,1501876394741,0.18856588,-0.29784477,0.09281036,221.0,-0.1825139,0.08211342,-0.023954246,-2.906939182928005,0.9293790378868748,58.734019276801064
-87.64716643,41.86944758,0.0,27.45463,14-53-14-839,1501876394840,0.17162223,-0.2875392,0.15744571,219.0,-0.21393919,-0.13733105,0.020786861,-2.7405004929028998,1.0491084120557903,59.55864167567506
-87.64716643,41.86944758,0.0,27.45463,14-53-14-943,1501876394943,0.1844386,-0.3603178,0.19941027,224.0,-0.20967813,-0.03879409,0.010666848,-3.1268552659465483,0.9787724046434684,61.096103597466595
-87.64716643,41.86944758,0.0,27.45463,14-53-15-038,1501876395039,0.07602887,-0.32700166,0.076369144,225.0,-0.23790763,-0.021749858,-5.184284E-4,-3.264612497542889,0.995011499560291,62.13599989860103
-87.64716643,41.8694473,0.0,27.485556,14-53-15-139,1501876395140,0.097804174,-0.2800147,0.11115931,225.0,-0.18677494,0.023523882,-0.026084775,-3.342589138758928,1.1316744067855489,63.72900491872309
-87.64716643,41.8694473,0.0,27.485556,14-53-15-238,1501876395240,0.09080573,-0.24345128,-0.08587029,224.0,-0.21553709,0.05707971,0.0064057903,-3.2544600616719,1.2347053558159582,64.55006195885034
-87.64716643,41.8694473,0.0,27.485556,14-53-15-339,1501876395339,-0.025656616,-0.34106365,-0.060237683,222.0,-0.27306136,0.19290093,-0.02928057,-2.858321896415854,1.3065008892765473,66.19677275641624
-87.64716643,41.8694473,0.0,27.485556,14-53-15-440,1501876395441,0.13603438,-0.27026162,0.32684627,208.0,-0.3827836,0.006479649,0.005340526,-1.7770048735552226,1.494508783092024,68.04003590772754
-87.64716643,41.8694473,0.0,27.485556,14-53-15-538,1501876395539,0.32199174,-0.30631855,0.084079415,209.0,-0.25654978,-0.04358778,-0.04685743,-1.8542589021014153,1.5844725130231412,69.62037775712844
-87.64716643,41.8694473,0.0,27.485556,14-53-15-639,1501876395640,0.006472255,-0.28767148,-0.056296982,211.0,-0.21393919,-0.015358272,-0.004779486,-2.2052339355746327,1.8561408326611655,71.08129374889165
-87.64716643,41.8694473,0.0,27.485556,14-53-15-739,1501876395740,0.08474139,-0.23829895,0.05269451,209.0,-0.11859802,0.029915467,-0.02715004,-2.1408506514673884,2.0054622148525727,72.31884206422791
-87.64716643,41.8694473,0.0,27.485556,14-53-15-841,1501876395843,0.21219675,-0.31082374,0.10181486,206.0,-0.0951622,-0.0015098343,0.009068951,-1.9683695919043491,2.1212682856735503,72.99384916933275
-87.64716643,41.8694473,0.0,27.485556,14-53-15-941,1501876395944,0.2145318,-0.272872,-0.039348934,207.0,-0.12925066,-0.040391985,-0.013301602,-2.0374479907357426,2.138657306970168,73.56445000278478
-87.64716643,41.8694473,0.0,27.485556,14-53-16-040,1501876396041,0.11415697,-0.25955743,0.13035455,210.0,-0.04829057,-0.036130928,-0.014899499,-2.270282949682542,2.2273893616948617,74.24856175005323
-87.64716641,41.86944715,0.0,27.501947,14-53-16-140,1501876396142,0.027349008,-0.23388594,-0.0064976984,211.0,-0.10741274,-4.4456986E-4,0.0064057903,-2.4222249900811184,2.2893415253444047,74.6163127953451
-87.64716641,41.86944715,0.0,27.501947,14-53-16-240,1501876396241,0.07201943,-0.1467012,-0.04080331,214.0,-0.0935643,-0.03186987,0.047951102,-2.5309095214752997,2.233511132181897,75.20450136590989
-87.64716641,41.86944715,0.0,27.501947,14-53-16-340,1501876396341,0.092010915,-0.2839315,0.2261009,218.0,0.006037919,-0.009499318,0.034102667,-2.5818689225425304,1.993241939210362,75.59677962051126
-87.64716641,41.86944715,0.0,27.501947,14-53-16-441,1501876396442,0.15598553,-0.22255984,0.009167389,221.0,0.083269596,-0.015890904,0.005340526,-2.680611259826112,1.8171718286818923,75.42501402326377
-87.64716641,41.86944715,0.0,27.501947,14-53-16-540,1501876396541,0.12191124,-0.32408154,-0.04817174,221.0,0.13600019,0.04003548,-0.0074426476,-2.687814761522948,1.7665836057073698,74.78430812817072
-87.64716641,41.86944715,0.0,27.501947,14-53-16-641,1501876396644,0.13296185,-0.3001805,2.6773126E-4,220.0,0.085932754,8.806237E-5,0.004807894,-2.609108357282776,1.7389332923998657,74.09656272026382
-87.64716641,41.86944715,0.0,27.501947,14-53-16-740,1501876396741,0.1950138,-0.35797632,-0.008576008,221.0,0.096052766,-0.028141445,-0.006910015,-2.6417637051480183,1.675819783148009,73.50432384752116
-87.64716641,41.86944715,0.0,27.501947,14-53-16-842,1501876396843,0.11543966,-0.31896448,-0.05792973,221.0,0.14984863,0.021925984,-0.028747937,-2.698813287077373,1.6832651162301462,73.01201064233578
-87.64716641,41.86944715,0.0,27.501947,14-53-16-941,1501876396942,0.08215349,-0.3113907,-0.04630548,218.0,0.105107516,-0.0015098343,0.006938422,-2.5888395574773515,1.74667189672949,71.98888928580294
-87.64716641,41.86944715,0.0,27.501947,14-53-17-042,1501876397043,0.1303227,-0.3268032,-0.0060764886,218.0,0.1312065,0.021925984,-0.03194373,-2.6128587714673475,1.7287430770450298,71.48445932503
-87.64716599,41.86944683,0.0,27.53363,14-53-17-143,1501876397144,0.17376114,-0.24499553,0.032212242,213.0,0.09392224,0.0075449133,-0.042063743,-2.5092881307708015,1.9256717315250722,70.58762133606143
-87.64716599,41.86944683,0.0,27.53363,14-53-17-244,1501876397245,0.041078754,-0.28579915,-0.045764115,211.0,0.1328044,0.014469133,-0.03940058,-2.5908358937056994,2.131172486856892,70.02184261616344
-87.64716599,41.86944683,0.0,27.53363,14-53-17-343,1501876397344,0.12756559,-0.25083038,0.10617613,207.0,0.12907597,-0.0036403632,-0.023421615,-2.5532593945434625,2.2908710608316643,69.26826784503595
-87.64716599,41.86944683,0.0,27.53363,14-53-17-444,1501876397444,0.16205883,-0.21105203,0.20113245,206.0,0.19831815,-0.052109897,-0.02235635,-2.5704509806843845,2.3476961002920547,68.37310325241407
-87.64716599,41.86944683,0.0,27.53363,14-53-17-545,1501876397545,0.15430802,-0.1863211,0.15734336,207.0,0.15464231,-0.026010916,0.01599317,-2.8162031080121475,2.38720895808399,67.26944713537756
-87.64716599,41.86944683,0.0,27.53363,14-53-17-644,1501876397645,0.13949513,-0.22525021,0.12895897,208.0,0.25317928,0.02778494,-0.02715004,-2.970916284223045,2.3148061781175047,66.3025928772272
-87.64716599,41.86944683,0.0,27.53363,14-53-17-745,1501876397745,0.08100552,-0.23345111,0.14638068,205.0,0.21909082,-0.005770892,-0.01756266,-2.889339279540763,2.4051860159794636,64.89556024782627
-87.64716599,41.86944683,0.0,27.53363,14-53-17-844,1501876397845,0.18976255,-0.306903,0.15069662,203.0,0.22228661,0.005947017,-0.025552142,-2.8840697885960984,2.4593186802463998,63.68648699113976
-87.64716599,41.86944683,0.0,27.53363,14-53-17-945,1501876397946,0.041977756,-0.28685308,-0.017091999,200.0,0.22122134,0.032045998,-0.031411096,-2.778052019185983,2.53285292373758,62.35582953703789
-87.64716599,41.86944683,0.0,27.53363,14-53-18-045,1501876398046,0.15914804,-0.264549,0.10331302,196.0,0.18553498,0.036839686,-0.015432131,-2.557016212030381,2.5991268895844484,61.19173990622511
-87.64716548,41.86944648,0.0,27.567915,14-53-18-146,1501876398146,0.104457214,-0.4010346,0.013135425,195.0,0.16902338,-0.022815123,0.017591067,-2.6053684018253707,2.5774568337821138,60.10255696003986
-87.64716548,41.86944648,0.0,27.567915,14-53-18-245,1501876398245,0.16806215,-0.3570923,0.07833313,195.0,0.096052766,0.026719674,-0.023954246,-2.5892805315656404,2.524835348869043,59.24846229489725
-87.64716548,41.86944648,0.0,27.567915,14-53-18-345,1501876398345,0.1405979,-0.38327304,0.1401324,195.0,0.010298977,-0.019619329,0.017591067,-2.587472025539468,2.5041821374793938,58.846170982972694
-87.64716548,41.86944648,0.0,27.567915,14-53-18-445,1501876398445,0.08469691,-0.2795739,0.1608246,199.0,0.006570551,-0.051577263,0.035167933,-2.7614967078549304,2.297849806616125,58.823030302064694
-87.64716548,41.86944648,0.0,27.567915,14-53-18-545,1501876398546,0.080232784,-0.16179661,0.00239482,201.0,-0.0014189321,-0.008966685,-5.184284E-4,-2.901717716750942,2.2453412332677707,58.741675918860665
-87.64716548,41.86944648,0.0,27.567915,14-53-18-646,1501876398646,0.1184575,-0.1673758,0.16519564,202.0,-0.0339095,-0.049446736,0.018656332,-2.97896630249014,2.198123922092061,58.74485195682473
-87.64716548,41.86944648,0.0,27.567915,14-53-18-745,1501876398746,0.06709573,-0.26390487,0.07853993,205.0,-0.028050544,-0.0047056274,0.0064057903,-3.124437165536952,2.13681251556403,58.905627779697625
-87.64716548,41.86944648,0.0,27.567915,14-53-18-857,1501876398858,0.19148217,-0.22234504,0.12548883,206.0,-0.014734738,-0.007901422,-0.009040544,-3.1657606637891758,2.079801566892168,58.959941443977584
-87.64716548,41.86944648,0.0,27.567915,14-53-18-945,1501876398946,0.07618973,-0.21067514,0.0593091,206.0,-0.022724222,-0.0036403632,0.013330009,-3.185680697060106,2.0922651680235607,59.054375639442185
-87.64716548,41.86944648,0.0,27.567915,14-53-19-046,1501876399047,0.017523138,-0.2319665,0.030607715,207.0,-0.054682154,0.014469133,0.03250477,-3.133380871368261,1.999461680223305,59.202597574620654
-87.64716491,41.86944603,0.0,27.612823,14-53-19-145,1501876399146,0.21587645,-0.24863742,0.07619811,207.0,7.115968E-4,0.034176525,-0.006377383,-3.002292465722791,1.8969936881908926,59.37188381319942
-87.64716491,41.86944603,0.0,27.612823,14-53-19-252,1501876399253,0.047007207,-0.28132275,0.058501564,207.0,-0.04935583,-0.0068361564,0.017591067,-3.01677545497098,1.8867309020761254,59.48533325531332
-87.64716491,41.86944603,0.0,27.612823,14-53-19-345,1501876399346,0.17435639,-0.25121427,0.05918648,212.0,-0.046692673,-0.013760376,0.04422268,-3.161581014903951,1.6608808787727218,59.67421530662085
-87.64716491,41.86944603,0.0,27.612823,14-53-19-446,1501876399446,0.20251992,-0.32789955,0.29101607,213.0,0.006570551,-0.01695617,-0.030345833,-3.168555064933357,1.5911277853173782,60.00911997219407
-87.64716491,41.86944603,0.0,27.612823,14-53-19-545,1501876399546,0.10378583,-0.17543015,0.015342971,212.0,-0.03870319,-0.0063035246,-0.011171073,-3.252469274972253,1.7035956011815123,60.06694435370741
-87.64716491,41.86944603,0.0,27.612823,14-53-19-645,1501876399646,0.094639346,-0.2340786,-0.007293369,213.0,-0.008343151,-0.009499318,-0.0074426476,-3.3375021419311497,1.707791791931133,60.318793918973256
-87.64716491,41.86944603,0.0,27.612823,14-53-19-745,1501876399746,0.042844463,-0.19718859,0.18266664,211.0,-0.007277887,0.010208075,-0.015432131,-3.2940886057929024,1.8184296507062325,60.223328364943995
-87.64716491,41.86944603,0.0,27.612823,14-53-19-846,1501876399846,0.21506107,-0.21402207,0.09926267,211.0,0.0321369,-0.007901422,-0.009040544,-3.2989186167531592,1.831207653982857,60.22697568596078
-87.64716491,41.86944603,0.0,27.612823,14-53-19-947,1501876399947,0.19938986,-0.2763431,0.082358785,211.0,0.0145600345,0.0075449133,0.01119948,-3.2847773504068827,1.8062817323805418,60.060455673995875
-87.64716491,41.86944603,0.0,27.612823,14-53-20-047,1501876400048,0.05137204,-0.35326877,0.017809922,212.0,0.034267426,-0.020151962,0.015460538,-3.349557425816222,1.7569888974707943,59.932082268545514
-87.6471642,41.86944547,0.0,27.668842,14-53-20-146,1501876400146,0.18589003,-0.37667897,0.11803608,215.0,-0.023789486,8.806237E-5,0.04741847,-3.3673910497391253,1.5875964707947758,59.90542404021494
-87.6471642,41.86944547,0.0,27.668842,14-53-20-246,1501876400247,0.06414979,-0.25456148,-0.054225814,218.0,0.015092667,-0.013227743,0.0032099972,-3.461955445684775,1.3843834019480872,59.94862498671529
-87.6471642,41.86944547,0.0,27.668842,14-53-20-346,1501876400347,0.059853293,-0.26888517,0.057722688,219.0,0.024680046,-0.08673099,-0.0058447504,-3.7139542078953376,1.3756773653555538,59.835749280491655
-87.6471642,41.86944547,0.0,27.668842,14-53-20-448,1501876400449,0.21391156,-0.3015249,0.09808488,219.0,-0.01047368,0.019795455,-0.004779486,-3.857024472892302,1.425415549943527,59.60046292396305
-87.6471642,41.86944547,0.0,27.668842,14-53-20-551,1501876400552,0.095236264,-0.25740027,0.10959716,218.0,0.060899038,-0.012695111,-0.052183755,-3.892684463662116,1.5143162249633553,59.58174820563721
-87.6471642,41.86944547,0.0,27.668842,14-53-20-650,1501876400651,-1.1908826E-4,-0.11134533,0.062449377,213.0,0.06782326,0.045361802,-0.07988063,-3.816437354409971,1.9066716393579777,59.139377343663
-87.6471642,41.86944547,0.0,27.668842,14-53-20-749,1501876400749,0.23399952,-0.2743228,0.10844383,208.0,-0.025387382,-0.003107731,0.022384757,-3.561918679282497,2.096861458448156,58.96666918031008
-87.6471642,41.86944547,0.0,27.668842,14-53-20-848,1501876400849,0.065278575,-0.1905592,0.04381968,209.0,-0.0062126224,-0.0025750988,-0.0031815895,-3.575988868972723,2.0831752534553316,59.01734235376239
-87.6471642,41.86944547,0.0,27.668842,14-53-20-948,1501876400949,0.049118306,-0.24326761,0.10984998,210.0,-0.007277887,0.021393351,0.014927905,-3.5886185290783112,2.0023433797228156,59.17393810086327
-87.64716385,41.86944518,0.0,27.698055,14-53-21-064,1501876401067,0.16641003,-0.22387129,0.18773396,210.0,-0.03497476,-4.4456986E-4,0.021852124,-3.466745329283658,1.9018589173140574,59.25544274822903
-87.64716385,41.86944518,0.0,27.698055,14-53-21-159,1501876401159,0.18616803,-0.20011605,0.076478936,212.0,-0.0030168288,-0.008966685,0.012797377,-3.480817653408,1.8027293936819004,59.37355037935686
-87.64716385,41.86944518,0.0,27.698055,14-53-21-253,1501876401254,0.14726046,-0.2231209,0.18301718,212.0,0.026277944,0.0070122816,-0.0074426476,-3.5073510173427955,1.7814285949815694,59.36991671871846
-87.64716385,41.86944518,0.0,27.698055,14-53-21-350,1501876401351,0.11577789,-0.25285748,0.0932629,212.0,0.012429506,0.034176525,-0.02715004,-3.49601909317951,1.8112675570312395,59.34096354682674
-87.64716385,41.86944518,0.0,27.698055,14-53-21-450,1501876401451,0.10460635,-0.24216524,0.22439171,209.0,-0.0014189321,-0.0340004,0.012264745,-3.3847903163194983,1.9311132578594568,59.17860995025558
-87.64716385,41.86944518,0.0,27.698055,14-53-21-552,1501876401552,0.19812948,-0.2799832,0.23848331,211.0,0.019353725,6.206946E-4,0.0080036875,-3.445629159134329,1.854901153326808,59.214727990586596
-87.64716385,41.86944518,0.0,27.698055,14-53-21-649,1501876401650,0.17174798,-0.21766597,0.1567444,212.0,0.001244229,-0.005770892,0.010134216,-3.4538571892066674,1.7996254995909529,59.14149470230569
-87.64716385,41.86944518,0.0,27.698055,14-53-21-750,1501876401750,0.08385689,-0.1825282,-0.026519356,213.0,0.004440022,0.022458617,0.010134216,-3.4795722111015306,1.7252657637055528,59.129371116528944
-87.64716385,41.86944518,0.0,27.698055,14-53-21-850,1501876401850,0.1392196,-0.32601178,0.17971687,214.0,-0.03657266,-0.026543548,0.039428987,-3.4300213231072036,1.5963021872221919,59.131092324199756
-87.64716385,41.86944518,0.0,27.698055,14-53-21-951,1501876401952,0.13034424,-0.25099853,0.0032420636,216.0,0.048648495,0.047492333,-0.038335316,-3.498438047362752,1.4980786241504136,59.13116745628065
-87.64716385,41.86944518,0.0,27.698055,14-53-22-116,1501876402116,0.15896982,-0.31742075,0.40317923,214.0,0.0023094935,-0.019086696,0.047951102,-3.3143121555950756,1.5182760271346702,59.068391187619056
-87.64716385,41.86944518,0.0,27.698055,14-53-22-156,1501876402157,0.15896982,-0.31742075,0.40317923,214.0,0.0023094935,-0.019086696,0.047951102,-3.3143121555950756,1.5182760271346702,59.068391187619056
-87.64716385,41.86944518,0.0,27.698055,14-53-22-252,1501876402253,0.15896982,-0.31742075,0.40317923,214.0,0.0023094935,-0.019086696,0.047951102,-3.3143121555950756,1.5182760271346702,59.068391187619056
-87.64716385,41.86944518,0.0,27.698055,14-53-22-358,1501876402358,0.15896982,-0.31742075,0.40317923,214.0,0.0023094935,-0.019086696,0.047951102,-3.3143121555950756,1.5182760271346702,59.068391187619056
-87.64716385,41.86944518,0.0,27.698055,14-53-22-452,1501876402453,0.15896982,-0.31742075,0.40317923,214.0,0.0023094935,-0.019086696,0.047951102,-3.3143121555950756,1.5182760271346702,59.068391187619056
-87.64716352,41.86944493,0.0,27.723042,14-53-22-553,1501876402554,0.1618325,-0.27479884,0.33343565,220.0,-0.019528428,-9.772021E-4,-0.021823717,-3.665010352963496,1.2492135313867117,59.26847474916542
-87.64716352,41.86944493,0.0,27.723042,14-53-22-652,1501876402653,0.1618325,-0.27479884,0.33343565,220.0,-0.019528428,-9.772021E-4,-0.021823717,-3.665010352963496,1.2492135313867117,59.26847474916542
-87.64716352,41.86944493,0.0,27.723042,14-53-22-753,1501876402753,0.1618325,-0.27479884,0.33343565,220.0,-0.019528428,-9.772021E-4,-0.021823717,-3.665010352963496,1.2492135313867117,59.26847474916542
-87.64716352,41.86944493,0.0,27.723042,14-53-22-855,1501876402856,0.027180983,-0.31869623,-0.11035313,220.0,-0.042964246,-0.0063035246,0.0080036875,-3.698359178472906,1.2790348843549277,59.363831020167936
-87.64716352,41.86944493,0.0,27.723042,14-53-22-954,1501876402955,0.060304776,-0.16932875,0.007605808,216.0,-0.025387382,0.043231275,-0.030878466,-3.484204786906092,1.5514608213822945,59.58392020579328
-87.64716336,41.86944481,0.0,27.735033,14-53-23-062,1501876403063,0.18164049,-0.09263757,0.11000873,213.0,0.052376922,0.006479649,-0.010105809,-3.366699919972485,1.6498798986190644,59.53701729676277
-87.64716336,41.86944481,0.0,27.735033,14-53-23-155,1501876403156,0.16896309,-0.14947344,0.0482151,213.0,0.022016887,-9.772021E-4,0.0080036875,-3.3488938302496734,1.6634587415758728,59.42510464721215
-87.64716336,41.86944481,0.0,27.735033,14-53-23-259,1501876403260,0.16896309,-0.14947344,0.0482151,213.0,0.022016887,-9.772021E-4,0.0080036875,-3.3488938302496734,1.6634587415758728,59.42510464721215
-87.64716336,41.86944481,0.0,27.735033,14-53-23-356,1501876403357,0.16896309,-0.14947344,0.0482151,213.0,0.022016887,-9.772021E-4,0.0080036875,-3.3488938302496734,1.6634587415758728,59.42510464721215
-87.64716336,41.86944481,0.0,27.735033,14-53-23-455,1501876403457,0.16896309,-0.14947344,0.0482151,213.0,0.022016887,-9.772021E-4,0.0080036875,-3.3488938302496734,1.6634587415758728,59.42510464721215
-87.64716336,41.86944481,0.0,27.735033,14-53-23-554,1501876403557,0.16896309,-0.14947344,0.0482151,213.0,0.022016887,-9.772021E-4,0.0080036875,-3.3488938302496734,1.6634587415758728,59.42510464721215
-87.64716336,41.86944481,0.0,27.735033,14-53-23-657,1501876403660,0.2533737,-0.23450817,0.1980416,216.0,0.008168448,0.014469133,-0.0074426476,-3.17680145113909,1.393585694472504,59.22140791559485
-87.64716336,41.86944481,0.0,27.735033,14-53-23-755,1501876403756,0.23510534,-0.14194883,-0.014407762,214.0,-0.005147358,0.03257863,0.010134216,-3.017031800508267,1.4358388455037898,59.30233199688115
-87.64716336,41.86944481,0.0,27.735033,14-53-23-856,1501876403856,0.21983403,-0.14681406,0.38949975,213.0,0.022549517,-4.4456986E-4,-0.01756266,-2.8980417943170056,1.4334286425004215,59.28399293895967
-87.64716336,41.86944481,0.0,27.735033,14-53-23-958,1501876403959,0.18857041,-0.22411412,0.22671998,213.0,0.05397482,0.011805971,-0.0095731765,-2.9159565267363026,1.43415701814238,59.4182129863396
-87.64716336,41.86944481,0.0,27.735033,14-53-24-057,1501876404058,0.122576974,-0.11345905,0.22661963,212.0,-0.011538945,-0.042522516,-0.0037142218,-2.893777621840802,1.498169764487151,59.14374866473179
-87.64716326,41.86944475,0.0,27.740875,14-53-24-162,1501876404162,0.11064958,-0.165259,0.06507345,211.0,0.008168448,0.0304481,-0.01756266,-2.9815893085748364,1.5647233412031667,59.04692390305769
-87.64716326,41.86944475,0.0,27.740875,14-53-24-262,1501876404263,0.089172035,-0.2040755,0.08590481,210.0,0.00390739,-0.02441302,-0.004779486,-2.969370740479918,1.6293980822889,58.99494616347391
-87.64716326,41.86944475,0.0,27.740875,14-53-24-358,1501876404361,0.086561106,-0.21165653,0.05555721,211.0,-0.0040820935,-0.003107731,0.017591067,-3.0539666887753456,1.6214950198106666,58.974906388449085
-87.64716326,41.86944475,0.0,27.740875,14-53-24-457,1501876404458,0.11062375,-0.26618207,0.2788443,212.0,0.03266953,-0.027608812,0.0016121005,-3.039366945981032,1.5509959416319106,59.059341186968766
-87.64716326,41.86944475,0.0,27.740875,14-53-24-557,1501876404557,0.16018969,-0.14976192,0.13180268,212.0,0.011896873,-0.015890904,0.012797377,-3.079599534956757,1.5440396074056641,58.890061778579195
-87.64716326,41.86944475,0.0,27.740875,14-53-24-657,1501876404658,0.053163536,-0.27106667,0.00830967,214.0,0.01828846,0.027252307,0.017058436,-3.1954596069608603,1.465683570525572,58.975445973393505
-87.64716326,41.86944475,0.0,27.740875,14-53-24-758,1501876404759,0.42630416,-0.039400622,0.5645973,217.0,-0.009408416,-0.052642528,0.042624783,-3.0595789698389804,1.2443981413001468,58.78347667658113
-87.64716326,41.86944475,0.0,27.740875,14-53-24-858,1501876404859,0.012043604,-0.3255561,0.18142748,222.0,0.094987504,-0.04198988,-0.020225821,-3.41633661221826,1.0624279212675498,58.92691064915141
-87.64716326,41.86944475,0.0,27.740875,14-53-24-959,1501876404959,0.03740762,-0.2102889,0.21233343,221.0,-0.009941048,-0.02228249,0.01119948,-3.5634379694860017,1.1202382155157147,58.581152812987
-87.6471632,41.86944472,0.0,27.743717,14-53-25-060,1501876405061,0.014167623,-0.28879017,-0.041754417,222.0,0.021484254,0.026187042,-5.184284E-4,-3.7089989056524937,1.0681380661353863,58.41004291389987
-87.6471632,41.86944472,0.0,27.743717,14-53-25-162,1501876405163,0.15275034,-0.3417915,0.08831129,223.0,-0.05841058,0.0150017645,0.030906871,-3.6159935003848993,1.002637512490316,58.339131889936766
-87.6471632,41.86944472,0.0,27.743717,14-53-25-260,1501876405261,0.29402235,-0.24867322,0.21474853,225.0,-0.025387382,-0.010031951,0.009601584,-3.5219403014099426,0.8646978934987946,58.58518262459734
-87.6471632,41.86944472,0.0,27.743717,14-53-25-360,1501876405361,-0.03974811,-0.3167749,-0.069896325,225.0,-0.02964844,-0.0020424665,0.0181237,-3.619507632712871,0.8543157925169637,58.70384350104797
-87.6471632,41.86944472,0.0,27.743717,14-53-25-459,1501876405460,0.24292836,-0.16056685,0.07716745,227.0,-0.0046147257,0.017132293,0.017058436,-3.57616325223997,0.7378265426964259,58.8308235479077
-87.6471632,41.86944472,0.0,27.743717,14-53-25-561,1501876405562,0.25448957,-0.20268376,0.22391635,228.0,0.006570551,-0.02441302,-0.03194373,-3.498424386984412,0.6716030562163922,59.16592628896683
-87.6471632,41.86944472,0.0,27.743717,14-53-25-660,1501876405661,0.14414963,-0.16334422,0.09491735,226.0,-0.011006312,-0.027608812,-0.015432131,-3.546859819709911,0.8239272136825191,59.1416244758999
-87.6471632,41.86944472,0.0,27.743717,14-53-25-760,1501876405762,-0.0033066692,-0.2228885,0.006524218,225.0,0.017223196,0.03790495,0.005340526,-3.6418120423343705,0.8930852802672783,59.23269821829285
-87.6471632,41.86944472,0.0,27.743717,14-53-25-860,1501876405861,0.35582912,-0.21755618,0.3598242,225.0,0.045985337,0.024589146,-0.08414169,-3.4839687184929033,0.910011396165069,59.23913225649102
-87.6471632,41.86944472,0.0,27.743717,14-53-25-959,1501876405960,0.014828005,-0.18679972,-0.065103225,217.0,-0.0088757835,0.024056513,-0.05111849,-3.3700114945028834,1.3431277787007407,59.0398819780234
-87.64716318,41.86944468,0.0,27.747982,14-53-26-059,1501876406061,0.06216199,-0.0853174,0.25909817,213.0,0.0023094935,0.00434912,0.026113182,-3.218947773742888,1.5596040076985365,59.09799322748188
-87.64716318,41.86944468,0.0,27.747982,14-53-26-159,1501876406160,0.13049108,-0.10975221,-0.0035294576,215.0,-0.012604209,0.03524179,0.004807894,-3.210906293212256,1.4580592651428395,59.058241526512404
