Longitude,Latitude,Speed,Distance,Time,Time in epoch, Acc X,Acc Y,Acc Z,Heading,gyro_x,gyro_y,gyro_z,pitch_deg,roll_deg,azimuth_deg
-87.64715858,41.86969617,0.0,237.04724,16-21-39-535,1502140899536,-0.039589953,-0.088548124,0.43258178,131.0,-0.071829766,0.0036967776,0.007961354,-0.26706455869402407,-0.7112065740973889,241.21396716301717
-87.64715858,41.86969617,0.0,237.04724,16-21-39-544,1502140899545,-0.039589953,-0.088548124,0.43258178,131.0,-0.071829766,0.0036967776,0.007961354,-0.26706455869402407,-0.7112065740973889,241.21396716301717
-87.64715858,41.86969617,0.0,237.04724,16-21-39-562,1502140899563,-0.039589953,-0.088548124,0.43258178,131.0,-0.071829766,0.0036967776,0.007961354,-0.26706455869402407,-0.7112065740973889,241.21396716301717
-87.64715858,41.86969617,0.0,237.04724,16-21-39-573,1502140899574,-0.039589953,-0.088548124,0.43258178,131.0,-0.071829766,0.0036967776,0.007961354,-0.26706455869402407,-0.7112065740973889,241.21396716301717
-87.64715858,41.86969617,0.0,237.04724,16-21-39-581,1502140899582,-0.039589953,-0.088548124,0.43258178,131.0,-0.071829766,0.0036967776,0.007961354,-0.26706455869402407,-0.7112065740973889,241.21396716301717
-87.64715603,41.86969647,0.0,0.0,16-21-39-632,1502140899633,0.050003752,-0.013992627,0.20341496,129.0,-0.0041854708,0.025002068,-2.8128852E-5,-0.2230809418839187,-0.7641234113312098,235.72127929665464
-87.64715603,41.86969647,0.0,0.0,16-21-39-645,1502140899646,0.08250593,-0.020038474,0.32297835,131.0,0.0016734836,-0.025065362,-0.012811303,-0.19563107862029858,-0.7630991497599723,235.58851407956794
-87.64715603,41.86969647,0.0,0.0,16-21-39-661,1502140899662,0.030779893,-0.03182558,0.3007207,130.0,-4.5704527E-4,-0.01760851,-0.0037565543,-0.20691463117043898,-0.7523513134924282,235.45115897535896
-87.64715603,41.86969647,0.0,0.0,16-21-39-673,1502140899674,0.030779893,-0.03182558,0.3007207,130.0,-4.5704527E-4,-0.01760851,-0.0037565543,-0.20691463117043898,-0.7523513134924282,235.45115897535896
-87.64715603,41.86969647,0.0,0.0,16-21-39-679,1502140899679,0.030779893,-0.03182558,0.3007207,130.0,-4.5704527E-4,-0.01760851,-0.0037565543,-0.20691463117043898,-0.7523513134924282,235.45115897535896
-87.64715603,41.86969647,0.0,0.0,16-21-39-732,1502140899733,0.04967372,-0.004508105,0.40658224,125.0,0.0075324387,-0.030391684,0.007961354,-0.24906319493005877,-0.7494811932979949,235.00818022654863
-87.64715603,41.86969647,0.0,0.0,16-21-39-744,1502140899745,0.034198694,-0.010667336,0.3812056,125.0,0.0075324387,-0.030391684,0.007961354,-0.26798772812946003,-0.7553432031531583,234.85329885692943
-87.64715603,41.86969647,0.0,0.0,16-21-39-760,1502140899761,0.02215145,-0.025697695,0.30274338,123.0,0.0054019094,-0.021869568,0.0021024002,-0.30061978398241573,-0.7645926133106778,234.7063678275041
-87.64715603,41.86969647,0.0,0.0,16-21-39-773,1502140899773,0.0371697,-0.025125073,0.3035971,122.0,0.014456656,-0.036783274,-0.009082877,-0.32725493374410025,-0.7693369267411921,234.55923189240372
-87.64715603,41.86969647,0.0,0.0,16-21-39-778,1502140899778,0.0371697,-0.025125073,0.3035971,122.0,0.014456656,-0.036783274,-0.009082877,-0.32725493374410025,-0.7693369267411921,234.55923189240372
-87.64715603,41.86969647,0.0,0.0,16-21-39-854,1502140899857,0.011379761,-0.039978255,0.32004085,114.0,0.009662967,-0.01707588,-0.0037565543,-0.4163920507030872,-0.7271037860297406,233.94433728218414
-87.64715603,41.86969647,0.0,0.0,16-21-39-854,1502140899857,0.011379761,-0.039978255,0.32004085,114.0,0.009662967,-0.01707588,-0.0037565543,-0.4163920507030872,-0.7271037860297406,233.94433728218414
-87.64715603,41.86969647,0.0,0.0,16-21-39-860,1502140899861,0.011379761,-0.039978255,0.32004085,114.0,0.009662967,-0.01707588,-0.0037565543,-0.4163920507030872,-0.7271037860297406,233.94433728218414
-87.64715603,41.86969647,0.0,0.0,16-21-39-876,1502140899876,0.03218524,-0.043238115,0.3238428,113.0,0.002206116,-0.023467464,-0.0069523477,-0.43514486867788615,-0.7210175538707303,233.79375893174205
-87.64715603,41.86969647,0.0,0.0,16-21-39-884,1502140899885,0.03218524,-0.043238115,0.3238428,113.0,0.002206116,-0.023467464,-0.0069523477,-0.43514486867788615,-0.7210175538707303,233.79375893174205
-87.64715603,41.86969647,0.0,0.0,16-21-39-932,1502140899932,-0.013488835,-0.01799615,0.31245252,109.0,0.01765245,-0.0074884994,0.0021024002,-0.4884545218302621,-0.7117891678892497,233.3874036572613
-87.64715603,41.86969647,0.0,0.0,16-21-39-944,1502140899945,-0.013488835,-0.01799615,0.31245252,109.0,0.01765245,-0.0074884994,0.0021024002,-0.4884545218302621,-0.7117891678892497,233.3874036572613
-87.64715603,41.86969647,0.0,0.0,16-21-39-962,1502140899962,-0.012793236,-0.020843862,0.28928247,109.0,0.022978771,-0.0037600736,0.0010371356,-0.49413958709723993,-0.7152906536950862,233.23838258994994
-87.64715603,41.86969647,0.0,0.0,16-21-39-972,1502140899973,-0.015172715,-0.04450404,0.2678566,108.0,0.027772462,0.005294674,-5.607611E-4,-0.5018729087024282,-0.7168404129455915,233.07684861607913
-87.64715603,41.86969647,0.0,0.0,16-21-39-978,1502140899979,-0.015172715,-0.04450404,0.2678566,108.0,0.027772462,0.005294674,-5.607611E-4,-0.5018729087024282,-0.7168404129455915,233.07684861607913
-87.64715603,41.86969647,0.0,0.0,16-21-40-032,1502140900033,0.03528533,-0.020095117,0.35752663,108.0,-0.0015223097,-0.03145695,5.045034E-4,-0.49703569402703107,-0.7252044598319481,232.58163258049655
-87.64715603,41.86969647,0.0,0.0,16-21-40-045,1502140900045,0.03528533,-0.020095117,0.35752663,108.0,-0.0015223097,-0.03145695,5.045034E-4,-0.49703569402703107,-0.7252044598319481,232.58163258049655
-87.64715603,41.86969647,0.0,0.0,16-21-40-062,1502140900063,1.3657379E-5,-0.04305593,0.34192136,107.0,-0.01590338,-0.030391684,0.0031676646,-0.5241205957373051,-0.7264234351553839,232.44125853267445
-87.64715603,41.86969647,0.0,0.0,16-21-40-076,1502140900077,-0.029552398,-0.0761838,0.320917,105.0,-0.010577058,-0.006423235,0.007961354,-0.559122593830123,-0.7285264397286602,232.32022758058181
-87.64715603,41.86969647,0.0,0.0,16-21-40-083,1502140900083,-0.029552398,-0.0761838,0.320917,105.0,-0.010577058,-0.006423235,0.007961354,-0.559122593830123,-0.7285264397286602,232.32022758058181
-87.64715603,41.86969647,0.0,0.0,16-21-40-132,1502140900133,-9.6514734E-4,-0.048856627,0.25485066,104.0,0.010728231,-0.009086396,-0.008017613,-0.5900768510660621,-0.7517886766595485,231.93060626956762
-87.64715603,41.86969647,0.0,0.0,16-21-40-147,1502140900150,-9.6514734E-4,-0.048856627,0.25485066,104.0,0.00806507,-0.014412719,-0.017604992,-0.5900768510660621,-0.7517886766595485,231.93060626956762
-87.64715603,41.86969647,0.0,0.0,16-21-40-162,1502140900162,0.024337586,-0.055591963,0.23886015,103.0,0.00806507,-0.014412719,-0.017604992,-0.5979029671944274,-0.7475424867907691,231.78523252327307
-87.64715603,41.86969647,0.0,0.0,16-21-40-264,1502140900265,-0.047319043,-0.029217763,0.3874216,96.0,0.00806507,-0.0032274413,-0.0021586576,-0.6682403086280716,-0.6613107615499763,231.04538643237728
-87.64715603,41.86969647,0.0,0.0,16-21-40-265,1502140900266,-0.047319043,-0.029217763,0.3874216,96.0,0.00806507,-0.0032274413,-0.0021586576,-0.6682403086280716,-0.6613107615499763,231.04538643237728
-87.64715603,41.86969647,0.0,0.0,16-21-40-264,1502140900266,-0.047319043,-0.029217763,0.3874216,96.0,0.00806507,-0.0032274413,-0.0021586576,-0.6682403086280716,-0.6613107615499763,231.04538643237728
-87.64715603,41.86969647,0.0,0.0,16-21-40-266,1502140900267,-0.047319043,-0.029217763,0.3874216,96.0,0.00806507,-0.0032274413,-0.0021586576,-0.6682403086280716,-0.6613107615499763,231.04538643237728
-87.64715603,41.86969647,0.0,0.0,16-21-40-267,1502140900268,-0.047319043,-0.029217763,0.3874216,96.0,0.00806507,-0.0032274413,-0.0021586576,-0.6682403086280716,-0.6613107615499763,231.04538643237728
-87.64715603,41.86969647,0.0,0.0,16-21-40-274,1502140900274,-0.018901056,6.6411674E-5,0.38753685,96.0,0.00806507,-0.0074884994,-0.009082877,-0.6667507937804799,-0.6590751018964136,230.9036190259645
-87.64715603,41.86969647,0.0,0.0,16-21-40-279,1502140900279,-0.018901056,6.6411674E-5,0.38753685,96.0,0.00806507,-0.0074884994,-0.009082877,-0.6667507937804799,-0.6590751018964136,230.9036190259645
-87.64715603,41.86969647,0.0,0.0,16-21-40-332,1502140900333,-0.018850358,-0.0020013885,0.31329164,93.0,0.01765245,-0.0058906022,-0.020268153,-0.6865140528656175,-0.6337326454764334,230.62026179805736
-87.64715603,41.86969647,0.0,0.0,16-21-40-346,1502140900348,-0.032652117,-0.018294094,0.31985033,92.0,0.01765245,-0.0058906022,-0.020268153,-0.6969235813258343,-0.6131519514858627,230.48018827855873
-87.64715603,41.86969647,0.0,0.0,16-21-40-362,1502140900363,-0.0029943236,-0.0065269456,0.31072104,90.0,0.021380875,-0.002694809,-0.024529211,-0.7031181893770657,-0.590909013566893,230.33015634325022
-87.64715603,41.86969647,0.0,0.0,16-21-40-378,1502140900378,0.02083892,5.8640086E-5,0.28738296,89.0,0.0054019094,0.002098881,-0.01920289,-0.7053778614144292,-0.5658427529214751,230.17471489811908
-87.64715603,41.86969647,0.0,0.0,16-21-40-381,1502140900382,0.02083892,5.8640086E-5,0.28738296,89.0,0.0054019094,0.002098881,-0.01920289,-0.7053778614144292,-0.5658427529214751,230.17471489811908
-87.64715603,41.86969647,0.0,0.0,16-21-40-434,1502140900434,0.048940867,-0.013666251,0.41130644,87.0,-0.002587574,-0.004825338,0.0010371356,-0.6855244758487591,-0.5177587547731143,229.7769110204792
-87.64715255,41.86969548,0.0,0.30912638,16-21-40-471,1502140900472,0.052834596,-0.022085158,0.35805959,87.0,0.0011408514,0.010620996,0.0015697678,-0.6836097283644812,-0.5170208275384884,229.64936406791838
-87.64715255,41.86969548,0.0,0.30912638,16-21-40-470,1502140900472,0.052834596,-0.022085158,0.35805959,87.0,0.010728231,5.0098426E-4,-0.0037565543,-0.6836097283644812,-0.5170208275384884,229.64936406791838
-87.64715255,41.86969548,0.0,0.30912638,16-21-40-479,1502140900480,0.054982487,-0.034338277,0.34129727,87.0,0.010728231,5.0098426E-4,-0.0037565543,-0.6798041924188734,-0.5213785415898095,229.52273236070633
-87.64715255,41.86969548,0.0,0.30912638,16-21-40-481,1502140900481,0.054982487,-0.034338277,0.34129727,87.0,0.010728231,5.0098426E-4,-0.0037565543,-0.6798041924188734,-0.5213785415898095,229.52273236070633
-87.64715255,41.86969548,0.0,0.30912638,16-21-40-533,1502140900534,0.014498674,0.055855952,0.30535558,86.0,0.016054554,0.0031641454,0.0052981935,-0.6797290603380033,-0.5086525117839005,229.0785241778454
-87.64715255,41.86969548,0.0,0.30912638,16-21-40-546,1502140900547,0.014498674,0.055855952,0.30535558,86.0,0.016054554,0.0031641454,0.0052981935,-0.6797290603380033,-0.5086525117839005,229.0785241778454
-87.64715255,41.86969548,0.0,0.30912638,16-21-40-565,1502140900566,0.05760312,0.056991056,0.41412154,87.0,0.014456656,-0.016010614,0.0021024002,-0.6671256004111843,-0.5136497022962639,228.92946212939904
-87.64715255,41.86969548,0.0,0.30912638,16-21-40-578,1502140900578,0.016398609,0.002360177,0.35484165,86.0,-0.007381264,-0.010684293,0.013820309,-0.679999706583865,-0.5176318093040873,228.7843342699146
-87.64715255,41.86969548,0.0,0.30912638,16-21-40-582,1502140900583,0.016398609,0.002360177,0.35484165,86.0,-0.007381264,-0.010684293,0.013820309,-0.679999706583865,-0.5176318093040873,228.7843342699146
-87.64715255,41.86969548,0.0,0.30912638,16-21-40-632,1502140900633,0.05478071,-0.016614871,0.4383675,86.0,0.033098783,-0.013880086,0.0037002969,-0.7100095300844912,-0.541753689575045,228.53346142170003
-87.64715255,41.86969548,0.0,0.30912638,16-21-40-646,1502140900647,0.013164703,-0.011482628,0.33424827,85.0,0.033098783,-0.013880086,0.0037002969,-0.7381329407137245,-0.5498637921624947,228.3948222419271
-87.64715255,41.86969548,0.0,0.30912638,16-21-40-665,1502140900666,-0.04027099,-0.015221756,0.2542295,84.0,0.046947222,0.007957836,0.0052981935,-0.7593557258471293,-0.5542776951919097,228.2378918155569
-87.64715255,41.86969548,0.0,0.30912638,16-21-40-677,1502140900678,-0.04027099,-0.015221756,0.2542295,84.0,0.0581325,0.015414686,-0.0016260255,-0.7593557258471293,-0.5542776951919097,228.2378918155569
-87.64715255,41.86969548,0.0,0.30912638,16-21-40-680,1502140900681,-0.04027099,-0.015221756,0.2542295,84.0,0.0581325,0.015414686,-0.0016260255,-0.7593557258471293,-0.5542776951919097,228.2378918155569
-87.64715255,41.86969548,0.0,0.30912638,16-21-40-733,1502140900734,-0.010308176,0.06713255,0.2838571,83.0,0.05067565,0.0010336165,-0.022931315,-0.7343047264056382,-0.5301250257088339,227.47836111947313
-87.64715255,41.86969548,0.0,0.30912638,16-21-40-751,1502140900752,-0.010308176,0.06713255,0.2838571,83.0,0.04375143,0.0010336165,-0.026127107,-0.7343047264056382,-0.5301250257088339,227.47836111947313
-87.64715255,41.86969548,0.0,0.30912638,16-21-40-765,1502140900766,0.013973017,0.055999946,0.2861191,82.0,0.04375143,0.0010336165,-0.026127107,-0.7325799435576512,-0.5053298915569537,227.29083144562128
-87.64715255,41.86969548,0.0,0.30912638,16-21-40-783,1502140900784,0.016958693,0.041648544,0.34512556,80.0,0.05387144,0.011153628,-0.02399658,-0.7288016750078705,-0.47739239013919177,227.11134773461168
-87.64715255,41.86969548,0.0,0.30912638,16-21-40-784,1502140900785,0.016958693,0.041648544,0.34512556,80.0,0.05387144,0.011153628,-0.02399658,-0.7288016750078705,-0.47739239013919177,227.11134773461168
-87.64715255,41.86969548,0.0,0.30912638,16-21-40-832,1502140900833,0.03457896,0.012462432,0.32916924,76.0,0.05333881,-0.0021621769,-0.020800786,-0.7148755596204492,-0.4043496001031349,226.53743425941218
-87.64715255,41.86969548,0.0,0.30912638,16-21-40-850,1502140900850,0.03457896,0.012462432,0.32916924,76.0,0.07038304,-0.0021621769,-0.027192373,-0.7148755596204492,-0.4043496001031349,226.53743425941218
-87.64715255,41.86969548,0.0,0.30912638,16-21-40-866,1502140900866,0.03484916,0.015748821,0.3268371,75.0,0.07038304,-0.0021621769,-0.027192373,-0.7123097563700517,-0.3819748075166723,226.34926254777832
-87.64715255,41.86969548,0.0,0.30912638,16-21-40-880,1502140900881,0.04353384,0.050833713,0.38940135,73.0,0.09168833,-0.01015166,-0.034649223,-0.7127409120614087,-0.3545335887112205,226.14958879758217
-87.64715255,41.86969548,0.0,0.30912638,16-21-40-882,1502140900883,0.04353384,0.050833713,0.38940135,73.0,0.09168833,-0.01015166,-0.034649223,-0.7127409120614087,-0.3545335887112205,226.14958879758217
-87.64715255,41.86969548,0.0,0.30912638,16-21-40-933,1502140900934,-0.01813542,-0.040265102,0.19754453,64.0,0.04375143,-0.002694809,-0.010680774,-0.7562673597643728,-0.25176645573750284,225.49658173179395
-87.64715255,41.86969548,0.0,0.30912638,16-21-40-949,1502140900950,-0.01813542,-0.040265102,0.19754453,64.0,0.04375143,-0.002694809,-0.010680774,-0.7562673597643728,-0.25176645573750284,225.49658173179395
-87.64715255,41.86969548,0.0,0.30912638,16-21-40-966,1502140900966,-0.011608903,-0.036063474,0.24951072,62.0,0.035229314,-0.002694809,0.0026350324,-0.7637718166715127,-0.23489466118795488,225.31402443565784
-87.64715255,41.86969548,0.0,0.30912638,16-21-40-983,1502140900984,-0.051418867,-0.038459837,0.26415008,62.0,0.027772462,0.0068925703,0.019679263,-0.7654325664960308,-0.23214705751175857,225.14617936699395
-87.64715255,41.86969548,0.0,0.30912638,16-21-40-987,1502140900987,-0.051418867,-0.038459837,0.26415008,62.0,0.027772462,0.0068925703,0.019679263,-0.7654325664960308,-0.23214705751175857,225.14617936699395
-87.64715255,41.86969548,0.0,0.30912638,16-21-41-032,1502140901033,-0.049878992,-0.040040456,0.33174106,65.0,0.07038304,0.025002068,-0.008017613,-0.7372837561008215,-0.2717557780759121,224.82003783412583
-87.64715255,41.86969548,0.0,0.30912638,16-21-41-051,1502140901051,0.007946341,0.017434066,0.28459573,66.0,0.07038304,0.025002068,-0.008017613,-0.7118811086387805,-0.28299090565205415,224.62544574467216
-87.64715255,41.86969548,0.0,0.30912638,16-21-41-066,1502140901066,0.07198923,0.03033691,0.2526657,67.0,0.057067234,-3.164797E-5,-0.021333419,-0.6874784435599116,-0.2795176744178233,224.42164656021734
-87.64715255,41.86969548,0.0,0.30912638,16-21-41-080,1502140901080,0.09783202,0.019386403,0.3313186,65.0,0.05600197,-0.014412719,-0.030388165,-0.6736659867891476,-0.2618013643300003,224.22954065962156
-87.64715255,41.86969548,0.0,0.30912638,16-21-41-083,1502140901084,0.09783202,0.019386403,0.3313186,65.0,0.05600197,-0.014412719,-0.030388165,-0.6736659867891476,-0.2618013643300003,224.22954065962156
-87.64715255,41.86969548,0.0,0.30912638,16-21-41-133,1502140901134,-0.054148566,-0.057166778,0.33374223,59.0,0.013924025,-0.01760851,0.015950838,-0.7228461235775897,-0.19509294775910885,223.6924009229134
-87.64715255,41.86969548,0.0,0.30912638,16-21-41-150,1502140901151,-0.054148566,-0.057166778,0.33374223,59.0,0.0091303345,-0.008553764,0.026603483,-0.7228461235775897,-0.19509294775910885,223.6924009229134
-87.64715255,41.86969548,0.0,0.30912638,16-21-41-167,1502140901167,-0.058884725,-0.05644799,0.3075395,59.0,0.00806507,-5.642802E-4,0.033527702,-0.7420900748423949,-0.20772051345122114,223.54771019553587
-87.64715255,41.86969548,0.0,0.30912638,16-21-41-179,1502140901180,-0.03215114,-0.017346084,0.3181266,61.0,0.0091303345,0.0063599385,0.031929806,-0.748260830592384,-0.2402287187646175,223.41643395968822
-87.64715255,41.86969548,0.0,0.30912638,16-21-41-182,1502140901183,-0.03215114,-0.017346084,0.3181266,61.0,0.0091303345,0.0063599385,0.031929806,-0.748260830592384,-0.2402287187646175,223.41643395968822
-87.64715255,41.86969548,0.0,0.30912638,16-21-41-234,1502140901235,0.029673412,0.03590131,0.2594412,66.0,-0.01590338,0.0010336165,0.017016102,-0.753259248404364,-0.31314501689889684,223.01388993076435
-87.64715255,41.86969548,0.0,0.30912638,16-21-41-251,1502140901252,0.10362424,0.05116389,0.43559358,66.0,-0.067568704,-0.06448015,0.023940321,-0.7557900469352653,-0.32476621024570335,222.8967385261203
-87.64715255,41.86969548,0.0,0.30912638,16-21-41-268,1502140901268,0.10362424,0.05116389,0.43559358,66.0,-0.067568704,-0.06448015,0.023940321,-0.7557900469352653,-0.32476621024570335,222.8967385261203
-87.64715255,41.86969548,0.0,0.30912638,16-21-41-280,1502140901280,0.12911884,0.079452984,0.6194681,67.0,-0.04679605,-0.17846344,0.017016102,-0.7922674192496588,-0.35215943096397995,222.83880486158023
-87.64715255,41.86969548,0.0,0.30912638,16-21-41-283,1502140901283,0.12911884,0.079452984,0.6194681,67.0,-0.04679605,-0.17846344,0.017016102,-0.7922674192496588,-0.35215943096397995,222.83880486158023
-87.64715255,41.86969548,0.0,0.30912638,16-21-41-333,1502140901334,0.11712045,-0.08394673,0.38390565,60.0,0.027772462,-0.037848536,-0.01227867,-1.1553442139108165,-0.350964227900507,222.61239775097266
-87.64715255,41.86969548,0.0,0.30912638,16-21-41-351,1502140901351,0.11712045,-0.08394673,0.38390565,60.0,0.033098783,-0.016010614,0.0037002969,-1.1553442139108165,-0.350964227900507,222.61239775097266
-87.64715255,41.86969548,0.0,0.30912638,16-21-41-368,1502140901368,0.13877018,-0.11247415,0.44077048,58.0,0.033098783,-0.016010614,0.0037002969,-1.1827158768445254,-0.33701892928647154,222.4748650618453
-87.64715255,41.86969548,0.0,0.30912638,16-21-41-379,1502140901380,0.13877018,-0.11247415,0.44077048,58.0,0.026174566,0.0026315132,0.01435294,-1.1827158768445254,-0.33701892928647154,222.4748650618453
-87.64715255,41.86969548,0.0,0.30912638,16-21-41-383,1502140901384,0.1136628,-0.07262546,0.32997593,58.0,0.026174566,0.0026315132,0.01435294,-1.2149426303393496,-0.3347000800632522,222.320502786603
-87.64715255,41.86969548,0.0,0.30912638,16-21-41-434,1502140901435,0.15346785,0.09193127,0.5254957,58.0,0.021380875,-0.07140437,5.045034E-4,-1.259104178913419,-0.36448274641312256,222.01537091562184
-87.64715051,41.86969582,0.0,0.4639201,16-21-41-451,1502140901452,0.035334248,0.04945692,0.3193614,57.0,-0.015370748,-0.082057014,0.007961354,-1.364589086846567,-0.372111000498969,221.84435663918308
-87.64715051,41.86969582,0.0,0.4639201,16-21-41-469,1502140901469,-0.032223016,0.042053536,0.24005267,56.0,-0.015370748,-0.082057014,0.007961354,-1.4576401690042358,-0.37268102780997414,221.69325919436403
-87.64715051,41.86969582,0.0,0.4639201,16-21-41-479,1502140901480,-0.047513332,0.032024935,0.26424977,55.0,-0.049991842,-0.103894934,0.0063634575,-1.541852025880556,-0.3789251814131145,221.58032884662705
-87.64715051,41.86969582,0.0,0.4639201,16-21-41-483,1502140901484,-0.047513332,0.032024935,0.26424977,55.0,-0.049991842,-0.103894934,0.0063634575,-1.541852025880556,-0.3789251814131145,221.58032884662705
-87.64715051,41.86969582,0.0,0.4639201,16-21-41-534,1502140901534,-0.12610067,-0.031205853,0.26502413,58.0,-0.008446529,0.005827307,-0.005354451,-1.4932176638954802,-0.4393466089562076,221.30672512885468
-87.64715051,41.86969582,0.0,0.4639201,16-21-41-551,1502140901551,-0.12610067,-0.031205853,0.26502413,58.0,-0.029751819,0.024469435,0.03086454,-1.4932176638954802,-0.4393466089562076,221.30672512885468
-87.64715051,41.86969582,0.0,0.4639201,16-21-41-569,1502140901569,-0.02038429,0.04642546,0.5194345,59.0,-0.019099174,0.029795757,0.027136113,-1.4266921549880849,-0.4597406200029401,221.21815123569795
-87.64715051,41.86969582,0.0,0.4639201,16-21-41-579,1502140901580,-0.040476084,0.04853773,0.33651474,60.0,-0.009511793,0.027132597,0.01648347,-1.4102204067526587,-0.4785728389268404,221.129085568921
-87.64715051,41.86969582,0.0,0.4639201,16-21-41-581,1502140901582,-0.040476084,0.04853773,0.33651474,60.0,-0.009511793,0.027132597,0.01648347,-1.4102204067526587,-0.4785728389268404,221.129085568921
-87.64715051,41.86969582,0.0,0.4639201,16-21-41-634,1502140901634,0.044652723,0.021368569,0.6449004,61.0,0.0581325,-0.044772755,-0.030388165,-1.323397710066101,-0.4960819755033152,220.80928245160266
-87.64715051,41.86969582,0.0,0.4639201,16-21-41-651,1502140901652,0.044652723,0.021368569,0.6449004,61.0,0.0581325,-0.044772755,-0.030388165,-1.323397710066101,-0.4960819755033152,220.80928245160266
-87.64715051,41.86969582,0.0,0.4639201,16-21-41-670,1502140901670,-0.06584656,0.018764587,0.444272,59.0,0.059730396,0.043644194,-0.01227867,-1.3563350166780181,-0.46288688261108296,220.6390604771076
-87.64715051,41.86969582,0.0,0.4639201,16-21-41-680,1502140901680,-0.15765549,-0.008218241,0.2824412,58.0,0.059730396,0.043644194,-0.01227867,-1.3791705802291923,-0.43555836192693637,220.45286952033305
-87.64715051,41.86969582,0.0,0.4639201,16-21-41-683,1502140901683,-0.15765549,-0.008218241,0.2824412,58.0,0.059730396,0.043644194,-0.01227867,-1.3791705802291923,-0.43555836192693637,220.45286952033305
-87.64715051,41.86969582,0.0,0.4639201,16-21-41-734,1502140901735,-0.05725815,0.08755086,0.09609296,57.0,0.019250346,0.053764205,-0.014409199,-1.2663680850957275,-0.39963959770102936,219.91669967048705
-87.64715051,41.86969582,0.0,0.4639201,16-21-41-752,1502140901753,-0.05725815,0.13917221,0.22381465,58.0,0.025641933,0.029263126,-0.03145343,-1.2083815933113176,-0.386665706733443,219.77594313207143
-87.64715051,41.86969582,0.0,0.4639201,16-21-41-770,1502140901771,0.04030285,0.13917221,0.22381465,58.0,0.024044037,0.010620996,-0.051160824,-1.2083815933113176,-0.386665706733443,219.77594313207143
-87.64715051,41.86969582,0.0,0.4639201,16-21-41-780,1502140901780,0.07081649,0.1449052,0.35618517,57.0,0.024044037,0.010620996,-0.051160824,-1.1617914856004854,-0.3564901977845911,219.63454455587382
-87.64715051,41.86969582,0.0,0.4639201,16-21-41-784,1502140901784,0.07081649,0.1449052,0.35618517,57.0,0.024044037,0.010620996,-0.051160824,-1.1617914856004854,-0.3564901977845911,219.63454455587382
-87.64715051,41.86969582,0.0,0.4639201,16-21-41-833,1502140901834,0.013416541,0.13583359,0.46227443,50.0,-0.016436012,0.03565471,-0.01920289,-1.0638887279762863,-0.20725045769810674,219.28060415308374
-87.64715051,41.86969582,0.0,0.4639201,16-21-41-851,1502140901852,0.013416541,0.13583359,0.46227443,50.0,-0.026023392,0.02766523,-0.009615509,-1.0638887279762863,-0.20725045769810674,219.28060415308374
-87.64715051,41.86969582,0.0,0.4639201,16-21-41-871,1502140901871,-0.008487638,0.11327261,0.39984253,49.0,-0.028686553,0.026067331,-0.011213406,-1.0291693823212305,-0.17543295526452793,219.18513176886532
-87.64715051,41.86969582,0.0,0.4639201,16-21-41-883,1502140901883,0.027938534,0.07389373,0.4305081,48.0,-0.028686553,0.026067331,-0.011213406,-0.9908853182496629,-0.16007767615413435,219.1030465554201
-87.64715051,41.86969582,0.0,0.4639201,16-21-41-885,1502140901886,0.027938534,0.07389373,0.4305081,48.0,-0.028686553,0.026067331,-0.011213406,-0.9908853182496629,-0.16007767615413435,219.1030465554201
-87.64715051,41.86969582,0.0,0.4639201,16-21-41-933,1502140901934,0.097408876,0.123708665,0.4489747,47.0,-0.05372027,0.0063599385,-0.0026912899,-0.8971127973609115,-0.13457305610221915,218.89334608752236
-87.64715051,41.86969582,0.0,0.4639201,16-21-41-952,1502140901953,0.059819184,0.060564864,0.39648983,47.0,-0.057981327,0.0047620414,-0.0016260255,-0.8864914796755714,-0.1316831390313633,218.8430075933394
-87.64715051,41.86969582,0.0,0.4639201,16-21-41-972,1502140901973,0.059819184,0.060564864,0.39648983,47.0,-0.048393946,-0.0112169245,-0.010680774,-0.8864914796755714,-0.1316831390313633,218.8430075933394
-87.64715051,41.86969582,0.0,0.4639201,16-21-41-983,1502140901984,0.057216853,0.06060014,0.3679977,47.0,-0.048393946,-0.0112169245,-0.010680774,-0.8781072623868221,-0.12806923524869931,218.7974912127104
-87.64715051,41.86969582,0.0,0.4639201,16-21-41-986,1502140901989,0.057216853,0.06060014,0.3679977,47.0,-0.048393946,-0.0112169245,-0.010680774,-0.8781072623868221,-0.12806923524869931,218.7974912127104
-87.64715051,41.86969582,0.0,0.4639201,16-21-42-033,1502140902034,0.03175578,0.050034855,0.2846959,45.0,-0.048393946,-0.02932642,-0.011213406,-0.917845943308191,-0.09468544504043228,218.61013912377697
-87.64715051,41.86969582,0.0,0.4639201,16-21-42-053,1502140902053,0.03175578,0.050034855,0.2846959,45.0,-0.053187635,-0.014412719,-0.013343935,-0.917845943308191,-0.09468544504043228,218.61013912377697
-87.64715051,41.86969582,0.0,0.4639201,16-21-42-072,1502140902072,-0.0041209855,0.045903023,0.26829812,43.0,-0.054785535,0.0047620414,-0.014409199,-0.9395321140880988,-0.08125434494506499,218.55168636486
-87.64715051,41.86969582,0.0,0.4639201,16-21-42-081,1502140902082,-0.049417622,0.06709907,0.2514038,42.0,-0.054785535,0.0047620414,-0.014409199,-0.9671827475607203,-0.06416170983572213,218.50050092721992
-87.64715051,41.86969582,0.0,0.4639201,16-21-42-084,1502140902085,-0.049417622,0.06709907,0.2514038,42.0,-0.054785535,0.0047620414,-0.014409199,-0.9671827475607203,-0.06416170983572213,218.50050092721992
-87.64715051,41.86969582,0.0,0.4639201,16-21-42-134,1502140902134,-0.027828773,0.08384161,0.4234874,38.0,-0.02069707,-0.015477982,-0.030388165,-0.9782927972976865,0.0021654857547539225,218.34137117993697
-87.64715051,41.86969582,0.0,0.4639201,16-21-42-153,1502140902154,-0.05527238,0.07627524,0.39094386,36.0,-0.026023392,-0.0010969124,-0.026127107,-0.9963152119181171,0.035764864856063554,218.26357532529053
-87.64715051,41.86969582,0.0,0.4639201,16-21-42-172,1502140902173,-0.05527238,0.07627524,0.39094386,36.0,-0.02069707,-0.026130626,-0.036779754,-0.9963152119181171,0.035764864856063554,218.26357532529053
-87.64715051,41.86969582,0.0,0.4639201,16-21-42-182,1502140902183,-0.005306831,0.04785936,0.4278905,34.0,-0.02069707,-0.026130626,-0.036779754,-1.0006053177688257,0.06872903198730454,218.18099833822507
-87.64715051,41.86969582,0.0,0.4639201,16-21-42-184,1502140902185,-0.005306831,0.04785936,0.4278905,34.0,-0.02069707,-0.026130626,-0.036779754,-1.0006053177688257,0.06872903198730454,218.18099833822507
-87.64715051,41.86969582,0.0,0.4639201,16-21-42-234,1502140902234,-0.02027693,0.05672904,0.40384492,28.0,-0.034545507,-0.009619028,-0.035181858,-1.060615679981675,0.19296407651239372,217.9410811134392
-87.64715051,41.86969582,0.0,0.4639201,16-21-42-254,1502140902255,0.030748984,0.04934903,0.49075294,25.0,-0.029219186,-0.030924316,-0.037312385,-1.068308607421225,0.23624674515892652,217.87307975006254
-87.64715051,41.86969582,0.0,0.4639201,16-21-42-272,1502140902273,0.030748984,0.04934903,0.49075294,25.0,-0.020164438,-0.03145695,-0.039442915,-1.068308607421225,0.23624674515892652,217.87307975006254
-87.64715051,41.86969582,0.0,0.4639201,16-21-42-283,1502140902284,0.039693344,0.03540239,0.51933193,23.0,-0.020164438,-0.03145695,-0.039442915,-1.0932552330344618,0.27962871835268893,217.80010600897015
-87.64715051,41.86969582,0.0,0.4639201,16-21-42-285,1502140902286,0.039693344,0.03540239,0.51933193,23.0,-0.020164438,-0.03145695,-0.039442915,-1.0932552330344618,0.27962871835268893,217.80010600897015
-87.64715051,41.86969582,0.0,0.4639201,16-21-42-335,1502140902336,-0.10360086,0.062116235,0.36352465,19.0,-0.062775016,-0.011749557,-0.028257638,-1.1914937371450496,0.411163994460692,217.55495685928003
-87.64715051,41.86969582,0.0,0.4639201,16-21-42-356,1502140902359,-0.06876744,0.06021044,0.3612108,17.0,-0.08194978,-0.040511698,-0.016539728,-1.2021810622054154,0.44683484416406877,217.50315670461467
-87.64715051,41.86969582,0.0,0.4639201,16-21-42-376,1502140902377,-0.06876744,0.06021044,0.3612108,17.0,-0.10112454,-0.037315905,-0.009615509,-1.2021810622054154,0.44683484416406877,217.50315670461467
-87.64715051,41.86969582,0.0,0.4639201,16-21-42-386,1502140902387,-0.07524412,0.019658977,0.3230167,16.0,-0.10112454,-0.037315905,-0.009615509,-1.2345027980183851,0.4739324724377572,217.48613587320298
-87.64715051,41.86969582,0.0,0.4639201,16-21-42-391,1502140902397,-0.11037778,-0.011256618,0.16923712,17.0,-0.11071192,-0.013880086,0.0063634575,-1.2802291002426223,0.49034984596408776,217.48560311844773
-87.64715025,41.86969735,0.0,0.4897066,16-21-42-436,1502140902438,0.053816143,-0.09400255,0.178409,17.0,-0.089406624,-0.041576963,0.0063634575,-1.3264549667716223,0.4882954531277949,217.51694002635975
-87.64715025,41.86969735,0.0,0.4897066,16-21-42-456,1502140902460,0.06718958,-0.14931649,0.08605214,18.0,-0.08035188,-0.021869568,0.007428723,-1.370448428659086,0.4825975812561233,217.51745912073667
-87.64715025,41.86969735,0.0,0.4897066,16-21-42-473,1502140902474,0.06718958,-0.14931649,0.08605214,18.0,-0.06064449,0.012751524,0.0132876765,-1.370448428659086,0.4825975812561233,217.51745912073667
-87.64715025,41.86969735,0.0,0.4897066,16-21-42-485,1502140902486,0.07810414,-0.18845637,0.065112926,19.0,-0.06064449,0.012751524,0.0132876765,-1.4094927781626407,0.4771617645329981,217.50751436530513
-87.64715025,41.86969735,0.0,0.4897066,16-21-42-486,1502140902487,0.07810414,-0.18845637,0.065112926,19.0,-0.06064449,0.012751524,0.0132876765,-1.4094927781626407,0.4771617645329981,217.50751436530513
-87.64715025,41.86969735,0.0,0.4897066,16-21-42-536,1502140902538,0.058563225,-0.28925255,-0.08900606,20.0,-0.02762129,0.08785267,0.032462437,-1.3377526332673522,0.4269866612815555,217.35649888275614
-87.64715025,41.86969735,0.0,0.4897066,16-21-42-553,1502140902554,0.13648604,-0.3061434,0.059694953,20.0,-0.015370748,0.0734716,0.02607085,-1.2440732804277481,0.39234818399905563,217.28288310388174
-87.64715025,41.86969735,0.0,0.4897066,16-21-42-573,1502140902574,0.13648604,-0.3061434,0.059694953,20.0,0.021380875,0.09158109,0.031929806,-1.2440732804277481,0.39234818399905563,217.28288310388174
-87.64715025,41.86969735,0.0,0.4897066,16-21-42-584,1502140902585,0.13462803,-0.27789927,0.2268256,20.0,0.021380875,0.09158109,0.031929806,-1.1531999613982558,0.35991180239365017,217.2002378149246
-87.64715025,41.86969735,0.0,0.4897066,16-21-42-585,1502140902586,0.13462803,-0.27789927,0.2268256,20.0,0.021380875,0.09158109,0.031929806,-1.1531999613982558,0.35991180239365017,217.2002378149246
-87.64715025,41.86969735,0.0,0.4897066,16-21-42-636,1502140902637,0.19549015,-0.1216147,0.32743943,20.0,0.12311363,0.06548212,0.02127716,-0.8746499593671792,0.26582021028503877,216.72213823340203
-87.64715025,41.86969735,0.0,0.4897066,16-21-42-653,1502140902653,0.19549015,-0.1216147,0.32743943,20.0,0.1273747,0.06388422,0.02607085,-0.8746499593671792,0.26582021028503877,216.72213823340203
-87.64715025,41.86969735,0.0,0.4897066,16-21-42-673,1502140902673,0.117053084,-0.09505849,0.29741216,20.0,0.11405888,0.019143114,0.018081367,-0.8016956949860681,0.24352252413100325,216.48459791444733
-87.64715025,41.86969735,0.0,0.4897066,16-21-42-686,1502140902687,0.14743483,-0.060631946,0.31233245,20.0,0.11405888,0.019143114,0.018081367,-0.725957541548795,0.2135959435608866,216.23610197206392
-87.64715025,41.86969735,0.0,0.4897066,16-21-42-686,1502140902688,0.14743483,-0.060631946,0.31233245,20.0,0.11405888,0.019143114,0.018081367,-0.725957541548795,0.2135959435608866,216.23610197206392
-87.64715025,41.86969735,0.0,0.4897066,16-21-42-736,1502140902737,-0.052362304,-0.17539,-0.020789877,23.0,0.04641459,-0.05009908,-0.01920289,-0.7339614560389921,0.1680725459797665,215.61857090882475
-87.64715025,41.86969735,0.0,0.4897066,16-21-42-755,1502140902756,-0.15227984,-0.16715299,-0.09854402,22.0,0.057067234,-0.04370749,-0.030920798,-0.7889510422425002,0.1819533179824439,215.46190002964298
-87.64715025,41.86969735,0.0,0.4897066,16-21-42-774,1502140902779,-0.25148582,-0.16028363,-0.22165953,21.0,0.07517673,-0.004825338,-0.026127107,-0.8448908785142865,0.21198820774371552,215.30007918782704
-87.64715025,41.86969735,0.0,0.4897066,16-21-42-783,1502140902784,-0.25148582,-0.16028363,-0.22165953,21.0,0.07517673,-0.004825338,-0.026127107,-0.8448908785142865,0.21198820774371552,215.30007918782704
-87.64715025,41.86969735,0.0,0.4897066,16-21-42-786,1502140902786,-0.25148582,-0.16028363,-0.22165953,21.0,0.07517673,-0.004825338,-0.026127107,-0.8448908785142865,0.21198820774371552,215.30007918782704
-87.64715025,41.86969735,0.0,0.4897066,16-21-42-836,1502140902837,-0.21586336,-0.18415545,-0.39907432,15.0,0.049610384,0.07826529,-0.017604992,-0.7993382125053559,0.29383217677300977,214.74559077062708
-87.64715025,41.86969735,0.0,0.4897066,16-21-42-855,1502140902855,-0.117623866,-0.2074111,-0.30724427,11.0,0.025641933,0.08359161,-0.018670257,-0.7206159067310218,0.31602359478851344,214.58073732481964
-87.64715025,41.86969735,0.0,0.4897066,16-21-42-879,1502140902880,-0.04026024,-0.1982485,-0.1730488,6.0,0.013391392,0.09424426,-0.01920289,-0.6254033365053085,0.3349948187341941,214.44146976764307
-87.64715025,41.86969735,0.0,0.4897066,16-21-42-885,1502140902885,-0.04026024,-0.1982485,-0.1730488,6.0,0.013391392,0.09424426,-0.01920289,-0.6254033365053085,0.3349948187341941,214.44146976764307
-87.64715025,41.86969735,0.0,0.4897066,16-21-42-885,1502140902886,-0.04026024,-0.1982485,-0.1730488,6.0,0.013391392,0.09424426,-0.01920289,-0.6254033365053085,0.3349948187341941,214.44146976764307
-87.64715025,41.86969735,0.0,0.4897066,16-21-42-936,1502140902937,0.09986595,-0.35339436,0.054544315,340.0,0.014456656,0.07879792,-0.033051327,-0.28809004207386535,0.39728787819242933,214.10252846027038
-87.64715025,41.86969735,0.0,0.4897066,16-21-42-954,1502140902955,0.12734239,-0.32409585,0.06565248,328.0,0.02937036,0.066014744,-0.044769235,-0.18887983683213766,0.42925129587823785,213.98705728216214
-87.64715025,41.86969735,0.0,0.4897066,16-21-42-973,1502140902975,0.111440234,-0.26059756,0.007385621,317.0,0.035761945,0.029263126,-0.06607452,-0.10772666406415347,0.4735381357348947,213.86155938635233
-87.64715025,41.86969735,0.0,0.4897066,16-21-42-985,1502140902985,0.111440234,-0.26059756,0.007385621,317.0,0.035761945,0.029263126,-0.06607452,-0.10772666406415347,0.4735381357348947,213.86155938635233
-87.64715025,41.86969735,0.0,0.4897066,16-21-42-987,1502140902988,0.111440234,-0.26059756,0.007385621,317.0,0.035761945,0.029263126,-0.06607452,-0.10772666406415347,0.4735381357348947,213.86155938635233
-87.64715025,41.86969735,0.0,0.4897066,16-21-43-038,1502140903039,0.029687462,-0.23525108,-0.180509,306.0,0.02937036,0.008490467,-0.11347879,-0.02672140924790904,0.7361183550736881,213.45692531954242
-87.64715025,41.86969735,0.0,0.4897066,16-21-43-055,1502140903056,0.030376142,-0.16978869,-0.08720566,305.0,0.016587187,-0.008021131,-0.1220009,-0.017705557875965554,0.8578286975453188,213.32944666887332
-87.64715025,41.86969735,0.0,0.4897066,16-21-43-074,1502140903075,0.007120001,-0.16527589,-0.20991243,304.0,-0.037741303,-0.0389138,-0.10921773,-0.019575322161256545,0.9942147153049267,213.20459081084547
-87.64715025,41.86969735,0.0,0.4897066,16-21-43-087,1502140903088,0.007120001,-0.16527589,-0.20991243,304.0,-0.037741303,-0.0389138,-0.10921773,-0.019575322161256545,0.9942147153049267,213.20459081084547
-87.64715025,41.86969735,0.0,0.4897066,16-21-43-085,1502140903089,0.007120001,-0.16527589,-0.20991243,304.0,-0.037741303,-0.0389138,-0.10921773,-0.019575322161256545,0.9942147153049267,213.20459081084547
-87.64715025,41.86969735,0.0,0.4897066,16-21-43-143,1502140903144,0.0080972565,-0.28692648,-0.058482185,309.0,-0.16717093,-0.011749557,0.0031676646,-0.13268593619952546,1.2640631096942598,213.209071414941
-87.64715025,41.86969735,0.0,0.4897066,16-21-43-161,1502140903162,0.09989047,-0.21942459,0.25840226,310.0,-0.14799617,-0.033587478,0.011157148,-0.14257607679813036,1.2689006978956272,213.3072212333141
-87.64715025,41.86969735,0.0,0.4897066,16-21-43-176,1502140903177,0.17035061,-0.10290783,0.3240209,311.0,-0.1272235,-0.028261155,0.011157148,-0.16713923798228128,1.2589344914012266,213.3881862957354
-87.64715025,41.86969735,0.0,0.4897066,16-21-43-185,1502140903185,0.17035061,-0.10290783,0.3240209,311.0,-0.1272235,-0.028261155,0.011157148,-0.16713923798228128,1.2589344914012266,213.3881862957354
-87.64715025,41.86969735,0.0,0.4897066,16-21-43-188,1502140903192,0.17035061,-0.10290783,0.3240209,311.0,-0.114440344,0.015414686,0.01435294,-0.16713923798228128,1.2589344914012266,213.3881862957354
-87.64715025,41.86969735,0.0,0.4897066,16-21-43-240,1502140903241,0.11771566,0.27803543,0.120076634,311.0,-0.09100453,0.066014744,0.012755044,-0.14989123607964047,1.2193908977580261,213.498247964021
-87.64715025,41.86969735,0.0,0.4897066,16-21-43-257,1502140903257,0.0719132,0.29581282,0.33899343,307.0,-0.083547674,0.050568413,0.009026619,-0.07683708685202453,1.2110086548208336,213.49570713364974
-87.64715025,41.86969735,0.0,0.4897066,16-21-43-273,1502140903274,0.13279949,0.3078276,0.7679766,303.0,-0.058513958,-0.012814822,-0.004821819,0.0018492737177809523,1.2006541947608003,213.50125324725582
-87.64715025,41.86969735,0.0,0.4897066,16-21-43-285,1502140903285,0.13279949,0.3078276,0.7679766,303.0,-0.058513958,-0.012814822,-0.004821819,0.0018492737177809523,1.2006541947608003,213.50125324725582
-87.64715025,41.86969735,0.0,0.4897066,16-21-43-290,1502140903290,0.13279949,0.3078276,0.7679766,303.0,-0.058513958,-0.012814822,-0.004821819,0.0018492737177809523,1.2006541947608003,213.50125324725582
-87.64715025,41.86969735,0.0,0.4897066,16-21-43-340,1502140903341,0.15598631,0.17409174,1.2396408,302.0,0.01765245,-0.1379834,-0.044236604,0.04279028471153694,1.3367572399175287,213.33570312215303
-87.64715025,41.86969735,0.0,0.4897066,16-21-43-357,1502140903357,0.10311378,0.21082473,1.2353469,302.0,-0.019099174,-0.154495,-0.0026912899,0.04119970440857022,1.4536359706033157,213.21889322696748
-87.64715025,41.86969735,0.0,0.4897066,16-21-43-374,1502140903375,0.10311378,0.21082473,1.2353469,302.0,0.016054554,-0.22160666,0.0063634575,0.04119970440857022,1.4536359706033157,213.21889322696748
-87.64715025,41.86969735,0.0,0.4897066,16-21-43-385,1502140903386,0.20588158,0.27290317,1.457293,301.0,0.016054554,-0.22160666,0.0063634575,0.07080859113584202,1.5460415998844184,213.1334748812073
-87.64715025,41.86969735,0.0,0.4897066,16-21-43-388,1502140903391,0.20588158,0.27290317,1.457293,301.0,0.016054554,-0.22160666,0.0063634575,0.07080859113584202,1.5460415998844184,213.1334748812073
-87.64714875,41.8696978,0.18,0.6221741,16-21-43-444,1502140903444,0.105925925,0.514982,1.183632,297.0,0.16945264,-0.1960403,0.09531304,0.1820871736819203,1.883696803980759,212.67172677255775
-87.64714875,41.8696978,0.18,0.6221741,16-21-43-460,1502140903460,-0.030252967,0.44328025,0.91591734,302.0,0.16412632,-0.1576908,0.13579309,0.00230860393946431,1.821833005903603,212.39924320580926
-87.64714875,41.8696978,0.18,0.6221741,16-21-43-475,1502140903476,-0.18420488,0.40598375,0.6069677,309.0,0.13749471,-0.09537282,0.16721839,-0.20011128250943025,1.6859767013306413,212.11912348756871
-87.64714875,41.8696978,0.18,0.6221741,16-21-43-489,1502140903490,-0.18420488,0.40598375,0.6069677,309.0,0.13749471,-0.09537282,0.16721839,-0.20011128250943025,1.6859767013306413,212.11912348756871
-87.64714875,41.8696978,0.18,0.6221741,16-21-43-486,1502140903487,-0.18420488,0.40598375,0.6069677,309.0,0.13749471,-0.09537282,0.16721839,-0.20011128250943025,1.6859767013306413,212.11912348756871
-87.64714875,41.8696978,0.18,0.6221741,16-21-43-543,1502140903545,-0.07709264,0.24376874,0.27067155,321.0,-0.011642322,0.058557898,0.14964153,-0.39014939669484044,1.1046654909297913,211.45857589293678
-87.64714875,41.8696978,0.18,0.6221741,16-21-43-558,1502140903558,-0.0052176006,0.16033992,0.17157246,321.0,-0.062775016,0.08252635,0.14165203,-0.3352113837556511,0.9251658783860348,211.3514238852376
-87.64714875,41.8696978,0.18,0.6221741,16-21-43-578,1502140903579,0.033693105,0.059046566,0.13910127,320.0,-0.08780873,0.10329901,0.12407518,-0.251848658131381,0.7600264717679657,211.30873520292502
-87.64714875,41.8696978,0.18,0.6221741,16-21-43-586,1502140903587,0.033693105,0.059046566,0.13910127,320.0,-0.08780873,0.10329901,0.12407518,-0.251848658131381,0.7600264717679657,211.30873520292502
-87.64714875,41.8696978,0.18,0.6221741,16-21-43-590,1502140903591,0.033693105,0.059046566,0.13910127,320.0,-0.08780873,0.10329901,0.12407518,-0.251848658131381,0.7600264717679657,211.30873520292502
-87.64714875,41.8696978,0.18,0.6221741,16-21-43-643,1502140903644,0.21684235,-0.19814317,0.57961875,286.0,0.0064671733,0.04737262,0.07560565,0.0997993624184942,0.3639359577535513,211.2962359567439
-87.64714875,41.8696978,0.18,0.6221741,16-21-43-663,1502140903664,0.1441231,-0.13562165,0.6153622,268.0,0.05866513,5.0098426E-4,0.054300357,0.17446891141577767,0.270848296731226,211.218221536044
-87.64714875,41.8696978,0.18,0.6221741,16-21-43-675,1502140903676,0.03818448,-0.039387945,0.53340375,256.0,0.09488412,-0.035185374,0.046310876,0.19881183901983535,0.19853298854284163,211.08082545070005
-87.64714875,41.8696978,0.18,0.6221741,16-21-43-686,1502140903687,0.03818448,-0.039387945,0.53340375,256.0,0.09488412,-0.035185374,0.046310876,0.19881183901983535,0.19853298854284163,211.08082545070005
-87.64714875,41.8696978,0.18,0.6221741,16-21-43-690,1502140903690,0.03818448,-0.039387945,0.53340375,256.0,0.09488412,-0.035185374,0.046310876,0.19881183901983535,0.19853298854284163,211.08082545070005
-87.64714875,41.8696978,0.18,0.6221741,16-21-43-745,1502140903745,-0.26735386,0.25376624,-0.18032916,234.0,-0.055850796,0.038850505,0.04790877,0.12122143699723262,0.052249363000277355,210.55996888497322
-87.64714875,41.8696978,0.18,0.6221741,16-21-43-760,1502140903761,-0.17625558,0.33070385,-0.07713841,210.0,-0.10325506,0.017545216,0.03086454,0.15233132116062753,-0.0010313622123864785,210.50192593740644
-87.64714875,41.8696978,0.18,0.6221741,16-21-43-778,1502140903779,-0.17625558,0.33070385,-0.07713841,210.0,-0.10325506,0.017545216,0.03086454,0.15233132116062753,-0.0010313622123864785,210.50192593740644
-87.64714875,41.8696978,0.18,0.6221741,16-21-43-787,1502140903788,-0.09652543,0.3290776,-0.033152446,197.0,-0.15119196,0.017012583,0.011157148,0.18167992365265828,-0.04493945976277699,210.5104773342473
-87.64714875,41.8696978,0.18,0.6221741,16-21-43-790,1502140903791,-0.09652543,0.3290776,-0.033152446,197.0,-0.15119196,0.017012583,0.011157148,0.18167992365265828,-0.04493945976277699,210.5104773342473
-87.64714875,41.8696978,0.18,0.6221741,16-21-43-843,1502140903844,0.069874495,0.21364677,0.078849025,203.0,-0.23108679,-0.0112169245,-0.03624712,0.23376471844756735,-0.03376190854690401,210.8297476968104
-87.64714875,41.8696978,0.18,0.6221741,16-21-43-860,1502140903861,0.053573586,0.21710971,0.16626209,213.0,-0.23002152,-0.03838117,-0.03145343,0.22883414896003795,0.007036858254548506,210.9986582749848
-87.64714875,41.8696978,0.18,0.6221741,16-21-43-875,1502140903875,0.017826427,0.28505304,0.24172479,224.0,-0.21191204,-0.046903286,-0.018670257,0.19729125481564802,0.04537834610769659,211.17397557060067
-87.64714875,41.8696978,0.18,0.6221741,16-21-43-887,1502140903888,0.017826427,0.28505304,0.24172479,224.0,-0.21191204,-0.046903286,-0.018670257,0.19729125481564802,0.04537834610769659,211.17397557060067
-87.64714875,41.8696978,0.18,0.6221741,16-21-43-891,1502140903892,0.017826427,0.28505304,0.24172479,224.0,-0.21191204,-0.046903286,-0.018670257,0.19729125481564802,0.04537834610769659,211.17397557060067
-87.64714875,41.8696978,0.18,0.6221741,16-21-43-944,1502140903944,-0.0015497794,0.59522235,0.08779704,312.0,-0.19167201,-0.08045912,0.013820309,-0.01692179366870659,0.0931006543900042,211.6018322805886
-87.64714875,41.8696978,0.18,0.6221741,16-21-43-960,1502140903960,-0.043485023,0.7255547,0.02168918,354.0,-0.19753096,-0.08045912,0.009559251,-0.11386787124185441,0.08705437616959585,211.73049938417333
-87.64714875,41.8696978,0.18,0.6221741,16-21-43-975,1502140903976,-0.043485023,0.7255547,0.02168918,354.0,-0.23374996,-0.087915964,-0.0058870832,-0.11386787124185441,0.08705437616959585,211.73049938417333
-87.64714875,41.8696978,0.18,0.6221741,16-21-43-988,1502140903989,-0.068938255,0.78458494,-0.008437249,10.0,-0.23374996,-0.087915964,-0.0058870832,-0.20235417255855964,0.07923412306494199,211.86090135580721
-87.64714875,41.8696978,0.18,0.6221741,16-21-43-990,1502140903991,-0.068938255,0.78458494,-0.008437249,10.0,-0.23374996,-0.087915964,-0.0058870832,-0.20235417255855964,0.07923412306494199,211.86090135580721
-87.64714875,41.8696978,0.18,0.6221741,16-21-44-044,1502140904044,-0.20046216,0.7026243,0.11646854,16.0,-0.2790237,-0.06980647,-0.05542188,-0.4567489971464745,0.13812802282286535,212.45373445500763
-87.64714875,41.8696978,0.18,0.6221741,16-21-44-112,1502140904112,-0.17449336,0.6454859,0.1294063,12.0,-0.30831847,-0.06288225,-0.086314544,-0.5216816845950817,0.19770669573582875,212.68123439588243
-87.64714875,41.8696978,0.18,0.6221741,16-21-44-123,1502140904124,0.24643284,0.40838888,-0.0800242,353.0,-0.17942147,0.14644222,-0.19443889,-0.640543357935141,0.5428201062200662,213.42058871315797
-87.64714875,41.8696978,0.18,0.6221741,16-21-44-125,1502140904126,0.24643284,0.40838888,-0.0800242,353.0,-0.17942147,0.14644222,-0.19443889,-0.640543357935141,0.5428201062200662,213.42058871315797
-87.64714875,41.8696978,0.18,0.6221741,16-21-44-125,1502140904126,0.24643284,0.40838888,-0.0800242,353.0,-0.17942147,0.14644222,-0.19443889,-0.640543357935141,0.5428201062200662,213.42058871315797
-87.64714875,41.8696978,0.18,0.6221741,16-21-44-144,1502140904145,0.4781304,0.44771722,0.36621037,338.0,-0.052655004,0.17307383,-0.23065789,-0.5152593324237127,0.749058735425659,213.57611212055915
-87.64714875,41.8696978,0.18,0.6221741,16-21-44-162,1502140904162,0.59970146,0.47438982,0.9317803,321.0,0.026174566,0.058025263,-0.23918,-0.31564940180761725,0.999163614245424,213.5971217824461
-87.64714875,41.8696978,0.18,0.6221741,16-21-44-176,1502140904177,0.41897407,0.27299747,1.0847362,312.0,0.040555637,-0.035185374,-0.19603679,-0.18904632269315672,1.2745092436995595,213.50184064352442
-87.64714875,41.8696978,0.18,0.6221741,16-21-44-187,1502140904188,0.41897407,0.27299747,1.0847362,312.0,0.040555637,-0.035185374,-0.19603679,-0.18904632269315672,1.2745092436995595,213.50184064352442
-87.64714875,41.8696978,0.18,0.6221741,16-21-44-191,1502140904192,0.41897407,0.27299747,1.0847362,312.0,0.040555637,-0.035185374,-0.19603679,-0.18904632269315672,1.2745092436995595,213.50184064352442
-87.64714875,41.8696978,0.18,0.6221741,16-21-44-244,1502140904244,-0.2628131,-0.40329897,0.782256,312.0,-0.012707587,-0.111884415,-0.017072361,-0.26681205513814515,1.8015125527925804,213.13902099481336
-87.64714875,41.8696978,0.18,0.6221741,16-21-44-263,1502140904263,-0.2358493,-0.4792608,0.64220047,314.0,-0.04626342,-0.09856861,0.013820309,-0.3642453439786117,1.8393424092843422,213.0588072532007
-87.64714875,41.8696978,0.18,0.6221741,16-21-44-277,1502140904278,-0.2358493,-0.4792608,0.64220047,314.0,-0.04626342,-0.09856861,0.013820309,-0.3642453439786117,1.8393424092843422,213.0588072532007
-87.64714875,41.8696978,0.18,0.6221741,16-21-44-287,1502140904288,-0.19068554,-0.54776865,0.20505646,318.0,-0.13468036,-0.061284356,0.0351256,-0.4890064864925638,1.8359875057413966,213.0043706455157
-87.64714875,41.8696978,0.18,0.6221741,16-21-44-291,1502140904291,-0.19068554,-0.54776865,0.20505646,318.0,-0.13468036,-0.061284356,0.0351256,-0.4890064864925638,1.8359875057413966,213.0043706455157
-87.64714875,41.8696978,0.18,0.6221741,16-21-44-345,1502140904346,0.055224262,-1.0799564,0.26618624,327.0,-0.2444026,0.005827307,0.042049818,-0.7018937712466351,1.6060809904012403,213.3389406318196
-87.64714875,41.8696978,0.18,0.6221741,16-21-44-361,1502140904362,0.04606851,-1.1771446,0.27747253,331.0,-0.19433516,0.03778524,0.043647714,-0.7063900634329133,1.3407376393780595,213.5300220040399
-87.64714875,41.8696978,0.18,0.6221741,16-21-44-377,1502140904378,0.012582978,-1.1509082,0.43938693,335.0,-0.1288214,0.05163368,0.040984552,-0.5731699984361649,0.9258913725419371,213.681925411181
-87.64714875,41.8696978,0.18,0.6221741,16-21-44-388,1502140904389,0.012582978,-1.1509082,0.43938693,335.0,-0.1288214,0.05163368,0.040984552,-0.5731699984361649,0.9258913725419371,213.681925411181
-87.64714875,41.8696978,0.18,0.6221741,16-21-44-390,1502140904391,0.012582978,-1.1509082,0.43938693,335.0,-0.1288214,0.05163368,0.040984552,-0.5731699984361649,0.9258913725419371,213.681925411181
-87.64714587,41.86969715,0.30149627,0.8468536,16-21-44-444,1502140904444,0.011316638,-1.0329229,0.27090442,343.0,0.07251357,0.048437882,-0.04317134,-0.24669013108030244,0.3066968914355817,213.69420609130867
-87.64714587,41.86969715,0.30149627,0.8468536,16-21-44-463,1502140904463,-0.06582321,-0.978064,0.14189655,336.0,0.1076673,0.05269894,-0.075661905,-0.18966872368127413,0.298130473514637,213.54120985390037
-87.64714587,41.86969715,0.30149627,0.8468536,16-21-44-477,1502140904478,-0.09356197,-0.9238493,0.2563689,323.0,0.14921261,0.022338906,-0.08311875,-0.12467580516996656,0.3402435523070844,213.34212349997284
-87.64714587,41.86969715,0.30149627,0.8468536,16-21-44-490,1502140904490,-0.09356197,-0.9238493,0.2563689,323.0,0.14921261,0.022338906,-0.08311875,-0.12467580516996656,0.3402435523070844,213.34212349997284
-87.64714587,41.86969715,0.30149627,0.8468536,16-21-44-491,1502140904492,-0.09356197,-0.9238493,0.2563689,323.0,0.15933263,0.05216631,-0.056487147,-0.12467580516996656,0.3402435523070844,213.34212349997284
-87.64714587,41.86969715,0.30149627,0.8468536,16-21-44-543,1502140904544,0.012059837,-0.6938903,0.021652978,296.0,0.112460986,0.13365903,0.03832139,0.0611874092461262,0.52447565885244,212.57043506716647
-87.64714587,41.86969715,0.30149627,0.8468536,16-21-44-562,1502140904563,0.16036752,-0.69776416,0.18450283,279.0,0.09222096,0.101168476,0.07400776,0.21601548471351073,0.4978007819357783,212.346281918985
-87.64714587,41.86969715,0.30149627,0.8468536,16-21-44-578,1502140904578,0.30392936,-0.6640915,0.23299615,263.0,0.0730462,0.072938964,0.091584615,0.3439900177885422,0.4261095422621642,212.14419028182266
-87.64714587,41.86969715,0.30149627,0.8468536,16-21-44-588,1502140904588,0.30392936,-0.6640915,0.23299615,263.0,0.0730462,0.072938964,0.091584615,0.3439900177885422,0.4261095422621642,212.14419028182266
-87.64714587,41.86969715,0.30149627,0.8468536,16-21-44-591,1502140904592,0.30392936,-0.6640915,0.23299615,263.0,0.0730462,0.072938964,0.091584615,0.3439900177885422,0.4261095422621642,212.14419028182266
-87.64714587,41.86969715,0.30149627,0.8468536,16-21-44-643,1502140904644,0.37749395,-0.6441148,0.21406178,226.0,-0.005250735,0.005294674,0.036190864,0.536069264638302,0.13451805440310205,211.68637636213504
-87.64714587,41.86969715,0.30149627,0.8468536,16-21-44-662,1502140904663,0.34268215,-0.647622,0.33698934,219.0,0.006999806,-0.026663259,-0.010680774,0.5528108053459436,0.07261684369796323,211.5954119027688
-87.64714587,41.86969715,0.30149627,0.8468536,16-21-44-678,1502140904679,0.25987706,-0.6809911,0.37579218,218.0,0.004869277,-0.041044332,-0.05062819,0.5375045114985038,0.06143855877036301,211.50659212280198
-87.64714587,41.86969715,0.30149627,0.8468536,16-21-44-689,1502140904690,0.25987706,-0.6809911,0.37579218,218.0,0.004869277,-0.041044332,-0.05062819,0.5375045114985038,0.06143855877036301,211.50659212280198
-87.64714587,41.86969715,0.30149627,0.8468536,16-21-44-690,1502140904691,0.25987706,-0.6809911,0.37579218,218.0,0.004869277,-0.041044332,-0.05062819,0.5375045114985038,0.06143855877036301,211.50659212280198
-87.64714587,41.86969715,0.30149627,0.8468536,16-21-44-744,1502140904744,-0.09116835,-0.70475656,0.40521872,238.0,0.013924025,-0.018673776,-0.03145343,0.41444240522101883,0.21116128794668118,211.23129451811542
-87.64714587,41.86969715,0.30149627,0.8468536,16-21-44-761,1502140904762,-0.13091405,-0.66818273,0.56372076,243.0,0.028837727,-0.0021621769,0.0015697678,0.4009131878573987,0.2473860099628504,211.1346336809814
-87.64714587,41.86969715,0.30149627,0.8468536,16-21-44-779,1502140904782,-0.14568308,-0.59896535,0.5804,244.0,0.059197765,0.051101044,0.028734012,0.3926347851399317,0.25468065199642403,211.02291910691667
-87.64714587,41.86969715,0.30149627,0.8468536,16-21-44-790,1502140904790,-0.14568308,-0.59896535,0.5804,244.0,0.059197765,0.051101044,0.028734012,0.3926347851399317,0.25468065199642403,211.02291910691667
-87.64714587,41.86969715,0.30149627,0.8468536,16-21-44-791,1502140904791,-0.14568308,-0.59896535,0.5804,244.0,0.059197765,0.051101044,0.028734012,0.3926347851399317,0.25468065199642403,211.02291910691667
-87.64714587,41.86969715,0.30149627,0.8468536,16-21-44-844,1502140904845,0.12217851,-0.35059637,0.30250993,225.0,0.049610384,0.016479952,0.055898253,0.5420297252670487,0.1433227018517774,210.56062458313355
-87.64714587,41.86969715,0.30149627,0.8468536,16-21-44-863,1502140904864,0.079190776,-0.257254,0.23512067,219.0,0.02457667,0.022871539,0.074540384,0.5683621855907106,0.08560359463109622,210.4114942327955
-87.64714587,41.86969715,0.30149627,0.8468536,16-21-44-881,1502140904881,-0.008217808,-0.2043088,0.19951302,211.0,0.020848244,0.04524209,0.083595134,0.5886266631670509,0.009076093273567133,210.28748531822473
-87.64714587,41.86969715,0.30149627,0.8468536,16-21-44-889,1502140904890,-0.008217808,-0.2043088,0.19951302,211.0,0.020848244,0.04524209,0.083595134,0.5886266631670509,0.009076093273567133,210.28748531822473
-87.64714587,41.86969715,0.30149627,0.8468536,16-21-44-890,1502140904890,-0.008217808,-0.2043088,0.19951302,211.0,0.020848244,0.04524209,0.083595134,0.5886266631670509,0.009076093273567133,210.28748531822473
-87.64714587,41.86969715,0.30149627,0.8468536,16-21-44-947,1502140904948,0.036513504,-0.26689008,0.28645146,192.0,0.00806507,-0.023467464,0.04045192,0.7716246665871762,-0.2566787491329172,210.00636839236535
-87.64714587,41.86969715,0.30149627,0.8468536,16-21-44-961,1502140904962,0.1281274,-0.24424207,0.5300722,188.0,0.03629458,-0.07992648,0.012755044,0.7955667207838923,-0.3166130988108237,209.92232974481752
-87.64714587,41.86969715,0.30149627,0.8468536,16-21-44-983,1502140904983,-0.029006628,-0.28577113,0.36041817,184.0,6.082192E-4,0.019143114,0.02127716,0.7244735762299039,-0.34418742626381144,209.80725471768113
-87.64714587,41.86969715,0.30149627,0.8468536,16-21-44-990,1502140904990,-0.029006628,-0.28577113,0.36041817,184.0,6.082192E-4,0.019143114,0.02127716,0.7244735762299039,-0.34418742626381144,209.80725471768113
-87.64714587,41.86969715,0.30149627,0.8468536,16-21-44-989,1502140904993,-0.029006628,-0.28577113,0.36041817,184.0,6.082192E-4,0.019143114,0.02127716,0.7244735762299039,-0.34418742626381144,209.80725471768113
-87.64714587,41.86969715,0.30149627,0.8468536,16-21-45-045,1502140905049,0.0071604154,0.11036951,0.08424663,186.0,0.095416754,0.010088365,-0.06287873,0.630486971599355,-0.2758788644570726,209.36538245951633
-87.64714587,41.86969715,0.30149627,0.8468536,16-21-45-061,1502140905062,0.04846205,0.18226923,0.14247797,192.0,0.048012488,0.0036967776,-0.030920798,0.6567233823878136,-0.20869352192325707,209.1683861434748
-87.64714587,41.86969715,0.30149627,0.8468536,16-21-45-081,1502140905082,0.07864077,0.23199809,0.057755653,196.0,-0.051057108,-0.011749557,-0.0037565543,0.661892501568191,-0.15541443119937426,209.00474847133967
-87.64714587,41.86969715,0.30149627,0.8468536,16-21-45-090,1502140905091,0.07864077,0.23199809,0.057755653,196.0,-0.051057108,-0.011749557,-0.0037565543,0.661892501568191,-0.15541443119937426,209.00474847133967
-87.64714587,41.86969715,0.30149627,0.8468536,16-21-45-091,1502140905092,0.07864077,0.23199809,0.057755653,196.0,-0.051057108,-0.011749557,-0.0037565543,0.661892501568191,-0.15541443119937426,209.00474847133967
-87.64714587,41.86969715,0.30149627,0.8468536,16-21-45-144,1502140905145,-0.022690637,0.10622958,0.2806844,194.0,-0.14107195,0.014882055,0.042049818,0.6616227090959754,-0.18236485022015042,209.03257466201828
-87.64714587,41.86969715,0.30149627,0.8468536,16-21-45-162,1502140905162,0.032416143,0.080912516,0.40024874,191.0,-0.11230981,0.017545216,0.040984552,0.6740527462508995,-0.22657535737674714,209.11863504556044
-87.64714587,41.86969715,0.30149627,0.8468536,16-21-45-180,1502140905181,0.021496575,0.09450821,0.4095816,187.0,-0.067568704,-0.006423235,0.03086454,0.6940290752216298,-0.27694802918601763,209.18151376705958
-87.64714587,41.86969715,0.30149627,0.8468536,16-21-45-190,1502140905191,0.021496575,0.09450821,0.4095816,187.0,-0.067568704,-0.006423235,0.03086454,0.6940290752216298,-0.27694802918601763,209.18151376705958
-87.64714587,41.86969715,0.30149627,0.8468536,16-21-45-192,1502140905192,0.021496575,0.09450821,0.4095816,187.0,-0.067568704,-0.006423235,0.03086454,0.6940290752216298,-0.27694802918601763,209.18151376705958
-87.64714587,41.86969715,0.30149627,0.8468536,16-21-45-244,1502140905245,-0.013982509,0.24120805,0.03263619,180.0,-0.08088451,-0.01760851,0.025538217,0.6468617098042259,-0.3672408088164854,209.1218998759837
-87.64714587,41.86969715,0.30149627,0.8468536,16-21-45-263,1502140905264,-0.0824806,0.18328248,-0.12653308,177.0,-0.115505606,0.01381679,0.028201379,0.611057377927343,-0.3890829266889664,209.11446863016673
-87.64714587,41.86969715,0.30149627,0.8468536,16-21-45-281,1502140905282,-0.06855975,0.1449979,-0.12339002,175.0,-0.12189719,0.027132597,0.018613998,0.6134737174287938,-0.42366553515848965,209.14769067028968
-87.64714587,41.86969715,0.30149627,0.8468536,16-21-45-290,1502140905290,-0.06855975,0.1449979,-0.12339002,175.0,-0.12189719,0.027132597,0.018613998,0.6134737174287938,-0.42366553515848965,209.14769067028968
-87.64714587,41.86969715,0.30149627,0.8468536,16-21-45-291,1502140905292,-0.06855975,0.1449979,-0.12339002,175.0,-0.12189719,0.027132597,0.018613998,0.6134737174287938,-0.42366553515848965,209.14769067028968
-87.64714587,41.86969715,0.30149627,0.8468536,16-21-45-344,1502140905345,0.12882239,0.18752688,0.31407997,173.0,-0.08780873,-0.071937,-0.03145343,0.6520427284547979,-0.4754139831574153,209.29482660539009
-87.64714587,41.86969715,0.30149627,0.8468536,16-21-45-363,1502140905364,0.103403635,0.25377902,0.28405666,172.0,-0.07928661,-0.040511698,-0.030388165,0.5927856080413539,-0.45605359851160254,209.3183087957566
-87.64714587,41.86969715,0.30149627,0.8468536,16-21-45-384,1502140905385,0.047884893,0.20762369,0.25425282,171.0,-0.092602424,-0.09270966,-0.064476624,0.5288408967840186,-0.4173050548960475,209.32188781488168
-87.64714587,41.86969715,0.30149627,0.8468536,16-21-45-390,1502140905391,0.047884893,0.20762369,0.25425282,171.0,-0.092602424,-0.09270966,-0.064476624,0.5288408967840186,-0.4173050548960475,209.32188781488168
-87.64714587,41.86969715,0.30149627,0.8468536,16-21-45-392,1502140905393,0.047884893,0.20762369,0.25425282,171.0,-0.092602424,-0.09270966,-0.064476624,0.5288408967840186,-0.4173050548960475,209.32188781488168
-87.64714192,41.86970186,0.0,1.3155226,16-21-45-446,1502140905446,-0.11346166,0.3090769,0.23312153,163.0,-0.07129713,-0.05329487,-5.607611E-4,0.2521047902252565,-0.2607134432612642,209.35610706262344
-87.64714192,41.86970186,0.0,1.3155226,16-21-45-463,1502140905463,-0.10464832,0.30633616,0.22151172,155.0,-0.05638343,-0.037848536,0.010624515,0.18427540887747637,-0.2556834625047994,209.35485030781618
-87.64714192,41.86970186,0.0,1.3155226,16-21-45-483,1502140905483,-0.07406528,0.28134215,0.18426386,146.0,-0.051057108,-0.041576963,0.0015697678,0.134442148589865,-0.26253363531421975,209.34403128817087
-87.64714192,41.86970186,0.0,1.3155226,16-21-45-492,1502140905495,-0.060762357,0.27453533,0.0699736,137.0,-0.062775016,-0.010684293,0.0010371356,0.08807020005596997,-0.2701660515465916,209.32136872050475
-87.64714192,41.86970186,0.0,1.3155226,16-21-45-493,1502140905495,-0.060762357,0.27453533,0.0699736,137.0,-0.062775016,-0.010684293,0.0010371356,0.08807020005596997,-0.2701660515465916,209.32136872050475
-87.64714192,41.86970186,0.0,1.3155226,16-21-45-547,1502140905548,0.004589989,0.3050194,0.19294935,129.0,-0.06703608,0.0042294096,0.025005586,0.048157962960574015,-0.2779301356834714,209.29863785094696
-87.64714192,41.86970186,0.0,1.3155226,16-21-45-563,1502140905563,0.07334511,0.26545468,0.26843336,129.0,-0.0542529,-0.020271672,0.00689609,0.0519521330445161,-0.3026762312115449,209.2929141524225
-87.64714192,41.86970186,0.0,1.3155226,16-21-45-583,1502140905583,0.07959669,0.270152,0.2943274,126.0,-0.02549076,-0.006423235,-0.018137624,0.039208704265511506,-0.3203632195107045,209.28105694402336
-87.64714192,41.86970186,0.0,1.3155226,16-21-45-590,1502140905591,0.07959669,0.270152,0.2943274,126.0,-0.02549076,-0.006423235,-0.018137624,0.039208704265511506,-0.3203632195107045,209.28105694402336
-87.64714192,41.86970186,0.0,1.3155226,16-21-45-592,1502140905592,0.07959669,0.270152,0.2943274,126.0,-0.02549076,-0.006423235,-0.018137624,0.039208704265511506,-0.3203632195107045,209.28105694402336
-87.64714192,41.86970186,0.0,1.3155226,16-21-45-648,1502140905650,0.027031483,0.2226781,0.2853172,133.0,0.06399146,0.025534699,-0.030388165,0.05470299173273874,-0.22464388126508802,209.06897957029446
-87.64714192,41.86970186,0.0,1.3155226,16-21-45-663,1502140905664,-0.02817703,0.16912691,0.28534004,145.0,0.07624199,0.0122188935,-0.012811303,0.09174484849954344,-0.1863742246238008,208.93116001322193
-87.64714192,41.86970186,0.0,1.3155226,16-21-45-683,1502140905684,-0.054884374,0.18330777,0.19754446,153.0,0.057067234,0.009023099,-0.0010933933,0.10903208396927216,-0.1611946788876959,208.76655245422464
-87.64714192,41.86970186,0.0,1.3155226,16-21-45-690,1502140905691,-0.054884374,0.18330777,0.19754446,153.0,0.057067234,0.009023099,-0.0010933933,0.10903208396927216,-0.1611946788876959,208.76655245422464
-87.64714192,41.86970186,0.0,1.3155226,16-21-45-693,1502140905694,-0.013612579,0.19830981,0.10077826,156.0,0.03629458,0.01381679,-0.0069523477,0.1220999700792255,-0.15697707709585268,208.6097859523945
-87.64714192,41.86970186,0.0,1.3155226,16-21-45-745,1502140905746,-0.019190034,0.16976036,0.07319565,166.0,0.02244614,0.02819786,-0.016007096,0.1482306329974679,-0.1343469795087344,208.36725959534567
-87.64714192,41.86970186,0.0,1.3155226,16-21-45-764,1502140905764,-0.033566736,0.15684597,0.09509907,174.0,0.010195599,0.037252605,-0.011213406,0.17034346381687673,-0.11432258574976271,208.25886449321757
-87.64714192,41.86970186,0.0,1.3155226,16-21-45-783,1502140905784,-0.040598515,0.10851199,0.14722559,183.0,0.008597702,0.036187343,-0.0069523477,0.21167145772095616,-0.09854840393385711,208.16275007121718
-87.64714192,41.86970186,0.0,1.3155226,16-21-45-790,1502140905791,-0.040598515,0.10851199,0.14722559,183.0,0.008597702,0.036187343,-0.0069523477,0.21167145772095616,-0.09854840393385711,208.16275007121718
-87.64714192,41.86970186,0.0,1.3155226,16-21-45-793,1502140905794,-0.040598515,0.10851199,0.14722559,183.0,0.008597702,0.036187343,-0.0069523477,0.21167145772095616,-0.09854840393385711,208.16275007121718
-87.64714192,41.86970186,0.0,1.3155226,16-21-45-846,1502140905847,-0.07526959,0.020802448,0.07349912,192.0,0.014456656,0.02819786,0.0063634575,0.29831499534393313,-0.08429253848589095,207.8854307305363
-87.64714192,41.86970186,0.0,1.3155226,16-21-45-864,1502140905864,-0.095571525,0.009535057,0.016165432,192.0,0.022978771,0.04257893,0.008493986,0.31758664089138855,-0.08911830058823636,207.78946657269762
-87.64714192,41.86970186,0.0,1.3155226,16-21-45-883,1502140905884,-0.047636807,0.042561132,0.05328084,192.0,0.03682721,0.043111563,-0.0010933933,0.36189826686421317,-0.09922760087977009,207.69104354675775
-87.64714192,41.86970186,0.0,1.3155226,16-21-45-890,1502140905891,-0.047636807,0.042561132,0.05328084,192.0,0.03682721,0.043111563,-0.0010933933,0.36189826686421317,-0.09922760087977009,207.69104354675775
-87.64714192,41.86970186,0.0,1.3155226,16-21-45-893,1502140905893,-0.047636807,0.042561132,0.05328084,192.0,0.033631418,0.054296836,-0.00748498,0.36189826686421317,-0.09922760087977009,207.69104354675775
-87.64714192,41.86970186,0.0,1.3155226,16-21-45-948,1502140905950,0.042661976,0.08810529,0.18455194,198.0,0.02990299,0.04470946,0.0037002969,0.5284592066032913,-0.0903228818216048,207.34585944648364
-87.64714192,41.86970186,0.0,1.3155226,16-21-45-964,1502140905965,0.07018779,0.06246772,0.21763134,198.0,0.021380875,0.042046297,0.0132876765,0.5778608976529357,-0.09093155573031607,207.2337623818254
-87.64714192,41.86970186,0.0,1.3155226,16-21-45-984,1502140905985,0.092667684,0.03489436,0.2986445,198.0,0.02723983,0.01594732,0.019679263,0.6299081130671964,-0.10144815274185809,207.130257695143
-87.64714192,41.86970186,0.0,1.3155226,16-21-45-993,1502140905993,0.092667684,0.03489436,0.2986445,198.0,0.028837727,0.02819786,0.023940321,0.6299081130671964,-0.10144815274185809,207.130257695143
-87.64714192,41.86970186,0.0,1.3155226,16-21-45-991,1502140905996,0.09240807,0.011953053,0.28595054,197.0,0.028837727,0.02819786,0.023940321,0.6612504104253569,-0.12182121298372435,207.02822832932137
-87.64714192,41.86970186,0.0,1.3155226,16-21-46-048,1502140906051,0.12894802,0.06643177,0.26178733,193.0,0.06345882,-0.0058906022,0.025538217,0.723710249229302,-0.17342578678304332,206.80203978476723
-87.64714192,41.86970186,0.0,1.3155226,16-21-46-065,1502140906065,0.123402186,0.07686039,0.1955567,192.0,0.059197765,-0.009086396,0.023407688,0.7440453765748697,-0.20072754699946524,206.66021773684108
-87.64714192,41.86970186,0.0,1.3155226,16-21-46-084,1502140906084,0.092474006,0.071523935,0.093401834,189.0,0.05759987,-0.008553764,0.018613998,0.7385243959305309,-0.22856454325080755,206.514461499953
-87.64714192,41.86970186,0.0,1.3155226,16-21-46-093,1502140906094,0.08360095,0.072563596,0.118752,187.0,0.05067565,-0.006423235,0.013820309,0.7288332646327819,-0.2517956174436076,206.3735820181323
-87.64714192,41.86970186,0.0,1.3155226,16-21-46-095,1502140906095,0.08360095,0.072563596,0.118752,187.0,0.05067565,-0.006423235,0.013820309,0.7288332646327819,-0.2517956174436076,206.3735820181323
-87.64714192,41.86970186,0.0,1.3155226,16-21-46-148,1502140906148,0.047126636,0.073616624,0.12269631,185.0,0.020315612,0.013284157,0.012755044,0.721288733725121,-0.2842295711302065,206.11802366014712
-87.64714192,41.86970186,0.0,1.3155226,16-21-46-164,1502140906165,0.091483355,0.08364784,0.24505733,184.0,0.0038040127,-0.016010614,0.01914663,0.7349297420755472,-0.29848809795071063,206.01652704908074
-87.64714192,41.86970186,0.0,1.3155226,16-21-46-183,1502140906184,0.07702094,0.079478525,0.34762442,183.0,0.0091303345,-0.01015166,0.02607085,0.7328070473475541,-0.3160381089404997,205.93109504294222
-87.64714192,41.86970186,0.0,1.3155226,16-21-46-190,1502140906191,0.07702094,0.079478525,0.34762442,183.0,0.00806507,-0.0058906022,0.029266644,0.7328070473475541,-0.3160381089404997,205.93109504294222
-87.64714192,41.86970186,0.0,1.3155226,16-21-46-194,1502140906195,0.07702094,0.079478525,0.34762442,183.0,0.0038040127,-0.009619028,0.034060333,0.7328070473475541,-0.3160381089404997,205.93109504294222
-87.64714192,41.86970186,0.0,1.3155226,16-21-46-249,1502140906250,0.1631126,0.029225003,0.38908643,174.0,0.0016734836,-0.059153825,0.024472954,0.6798058999661659,-0.4148712397152751,205.68819985567822
-87.64714192,41.86970186,0.0,1.3155226,16-21-46-264,1502140906265,0.16452277,0.047644757,0.41367376,170.0,0.010728231,-0.0735349,0.018081367,0.6192096889494293,-0.4450582746083514,205.6095570575747
-87.64714192,41.86970186,0.0,1.3155226,16-21-46-283,1502140906284,0.1295895,0.043026824,0.45833877,165.0,0.026707198,-0.09111176,0.020211896,0.5428425177782803,-0.4683705640192512,205.52820950455984
-87.64714192,41.86970186,0.0,1.3155226,16-21-46-290,1502140906291,0.1295895,0.043026824,0.45833877,165.0,0.026707198,-0.09111176,0.020211896,0.5428425177782803,-0.4683705640192512,205.52820950455984
-87.64714192,41.86970186,0.0,1.3155226,16-21-46-293,1502140906294,0.057349183,0.057765834,0.42210314,158.0,0.02244614,-0.09270966,0.028201379,0.45079883516233554,-0.48903700890041724,205.4300733465651
-87.64714192,41.86970186,0.0,1.3155226,16-21-46-350,1502140906350,0.0030350566,0.04032438,0.25940064,140.0,-0.018566541,-0.07939385,0.032995068,0.25280832639019424,-0.553462554803151,205.2413005782843
-87.64714192,41.86970186,0.0,1.3155226,16-21-46-364,1502140906365,0.03498742,-0.017515173,0.29052272,131.0,-0.034012876,-0.08525281,0.029799275,0.1677701767068612,-0.5925302763602719,205.18358547979767
-87.64714192,41.86970186,0.0,1.3155226,16-21-46-384,1502140906384,-0.028222607,-0.040721793,0.21734178,122.0,-0.030817082,-0.056490667,0.04045192,0.07062246848095918,-0.6283494959151112,205.14100608051183
-87.64714192,41.86970186,0.0,1.3155226,16-21-46-391,1502140906391,-0.028222607,-0.040721793,0.21734178,122.0,-0.030817082,-0.056490667,0.04045192,0.07062246848095918,-0.6283494959151112,205.14100608051183
-87.64714192,41.86970186,0.0,1.3155226,16-21-46-393,1502140906394,-0.028222607,-0.040721793,0.21734178,122.0,0.0075324387,-0.039446436,0.03778876,0.07062246848095918,-0.6283494959151112,205.14100608051183
-87.6471436,41.8697059,0.0,1.4703493,16-21-46-450,1502140906450,0.007282782,-0.015935756,0.11798029,107.0,0.027772462,-0.025065362,0.009559251,-0.10528401099212105,-0.7462990721967094,204.94652327408488
-87.6471436,41.8697059,0.0,1.4703493,16-21-46-464,1502140906465,-0.011345215,0.02898854,0.10659166,104.0,0.019250346,-0.021869568,0.0037002969,-0.14010609629931128,-0.7608718677603135,204.83942590789908
-87.6471436,41.8697059,0.0,1.4703493,16-21-46-484,1502140906485,3.6335195E-4,0.035794068,0.23793805,103.0,0.011793496,-0.0224022,0.0031676646,-0.165903814175942,-0.7683746704810137,204.7435710330871
-87.6471436,41.8697059,0.0,1.4703493,16-21-46-491,1502140906493,3.6335195E-4,0.035794068,0.23793805,103.0,-9.896775E-4,-0.015477982,0.009559251,-0.165903814175942,-0.7683746704810137,204.7435710330871
-87.6471436,41.8697059,0.0,1.4703493,16-21-46-494,1502140906495,-0.01209305,0.022604743,0.3195987,101.0,-9.896775E-4,-0.015477982,0.009559251,-0.19164351546526728,-0.7719653756328835,204.65660906457452
-87.6471436,41.8697059,0.0,1.4703493,16-21-46-550,1502140906550,-0.015171541,0.039505597,0.3862805,98.0,-0.0228276,-0.03838117,0.0132876765,-0.23670941043391552,-0.7919770294882275,204.51750543193805
-87.6471436,41.8697059,0.0,1.4703493,16-21-46-564,1502140906565,-0.008995792,0.030916763,0.31433746,95.0,-0.042534992,-0.036783274,0.015418205,-0.2799039803123257,-0.8030851048736367,204.4651725225174
-87.6471436,41.8697059,0.0,1.4703493,16-21-46-587,1502140906588,0.009817557,0.0027356613,0.24817911,93.0,-0.049991842,-0.03145695,0.008493986,-0.32123401526902823,-0.8209409269113426,204.4336033881736
-87.6471436,41.8697059,0.0,1.4703493,16-21-46-591,1502140906593,0.009817557,0.0027356613,0.24817911,93.0,-0.049991842,-0.03145695,0.008493986,-0.32123401526902823,-0.8209409269113426,204.4336033881736
-87.6471436,41.8697059,0.0,1.4703493,16-21-46-594,1502140906595,0.009817557,0.0027356613,0.24817911,93.0,-0.049991842,-0.03145695,0.008493986,-0.32123401526902823,-0.8209409269113426,204.4336033881736
-87.6471436,41.8697059,0.0,1.4703493,16-21-46-656,1502140906658,0.022696406,-0.006414466,0.20479146,86.0,0.00806507,-0.011749557,-0.010680774,-0.43806357392887657,-0.8149253445215596,204.23559620413494
-87.6471436,41.8697059,0.0,1.4703493,16-21-46-664,1502140906665,0.022696406,-0.006414466,0.20479146,86.0,0.00806507,-0.011749557,-0.010680774,-0.43806357392887657,-0.8149253445215596,204.23559620413494
-87.6471436,41.8697059,0.0,1.4703493,16-21-46-684,1502140906685,0.059327867,0.013214071,0.24478969,85.0,-0.0036528385,-0.025065362,-0.01227867,-0.4542242817528027,-0.8021051861711515,204.14930359416098
-87.6471436,41.8697059,0.0,1.4703493,16-21-46-691,1502140906692,0.059327867,0.013214071,0.24478969,85.0,-0.012707587,-0.0112169245,-0.008017613,-0.4542242817528027,-0.8021051861711515,204.14930359416098
-87.6471436,41.8697059,0.0,1.4703493,16-21-46-696,1502140906696,0.028223438,0.010133733,0.2735872,83.0,-0.012707587,-0.0112169245,-0.008017613,-0.47411272539882204,-0.7882761875359913,204.07751830598414
-87.6471436,41.8697059,0.0,1.4703493,16-21-46-750,1502140906751,0.06933126,0.04910338,0.23891605,80.0,-0.042002358,-0.01973904,-0.005354451,-0.512918178363985,-0.7707060595046624,203.97165037384895
-87.6471436,41.8697059,0.0,1.4703493,16-21-46-764,1502140906764,0.018287443,0.036162272,0.22742328,79.0,-0.045730785,-0.01760851,-0.0042891866,-0.5374908511201637,-0.7642827468379414,203.94267671138977
-87.6471436,41.8697059,0.0,1.4703493,16-21-46-785,1502140906785,0.029124012,0.004133095,0.26626456,78.0,-0.027088657,-0.021869568,-0.008017613,-0.553443451617816,-0.7594723193106955,203.9253143705196
-87.6471436,41.8697059,0.0,1.4703493,16-21-46-792,1502140906793,0.029124012,0.004133095,0.26626456,78.0,-0.021229703,-0.015477982,-0.008017613,-0.553443451617816,-0.7594723193106955,203.9253143705196
-87.6471436,41.8697059,0.0,1.4703493,16-21-46-794,1502140906794,0.029124012,0.004133095,0.26626456,78.0,-0.021229703,-0.015477982,-0.008017613,-0.553443451617816,-0.7594723193106955,203.9253143705196
-87.6471436,41.8697059,0.0,1.4703493,16-21-46-849,1502140906850,0.02072614,0.03973651,0.27706727,74.0,-0.007913897,-0.018673776,-0.018137624,-0.618777626123573,-0.7294495824836698,203.80797172057876
-87.6471436,41.8697059,0.0,1.4703493,16-21-46-864,1502140906864,0.030955927,0.04230882,0.3206386,72.0,-0.004718103,-0.026663259,-0.02186605,-0.6376728108538844,-0.7119473828180708,203.7550104337545
-87.6471436,41.8697059,0.0,1.4703493,16-21-46-885,1502140906885,0.03444219,0.055765584,0.29522112,70.0,-0.013772851,-0.025597995,-0.018137624,-0.6623313412223643,-0.6888889309843722,203.6915989575001
-87.6471436,41.8697059,0.0,1.4703493,16-21-46-891,1502140906892,0.03444219,0.055765584,0.29522112,70.0,-0.013772851,-0.025597995,-0.018137624,-0.6623313412223643,-0.6888889309843722,203.6915989575001
-87.6471436,41.8697059,0.0,1.4703493,16-21-46-894,1502140906896,-0.018359652,0.05149571,0.2631749,67.0,-0.023892865,-0.01015166,-0.013343935,-0.6929993708433976,-0.6657202889894542,203.63455321755214
-87.6471436,41.8697059,0.0,1.4703493,16-21-46-950,1502140906950,-0.02666031,0.032744735,0.31038126,65.0,-0.010044426,-0.023467464,-0.009082877,-0.7264203402259162,-0.6316152868337294,203.55208551351342
-87.6471436,41.8697059,0.0,1.4703493,16-21-46-964,1502140906965,-0.03580857,0.035769798,0.28162062,63.0,0.01285876,-5.642802E-4,-0.0026912899,-0.7520425142367496,-0.6187830689305679,203.50599539699417
-87.6471436,41.8697059,0.0,1.4703493,16-21-46-985,1502140906986,0.021801172,0.08546735,0.28378502,62.0,0.027772462,-0.0074884994,-0.0042891866,-0.7630349566539447,-0.6122114130928107,203.43127312747424
-87.6471436,41.8697059,0.0,1.4703493,16-21-46-991,1502140906993,0.021801172,0.08546735,0.28378502,62.0,0.027772462,-0.0074884994,-0.0042891866,-0.7630349566539447,-0.6122114130928107,203.43127312747424
-87.6471436,41.8697059,0.0,1.4703493,16-21-46-995,1502140906997,0.021801172,0.08546735,0.28378502,62.0,0.027772462,-0.0074884994,-0.0042891866,-0.7630349566539447,-0.6122114130928107,203.43127312747424
-87.6471436,41.8697059,0.0,1.4703493,16-21-47-050,1502140907054,0.014650062,0.09808754,0.22881396,61.0,-0.01110969,-0.021869568,0.0037002969,-0.7900320264003606,-0.6136123489246038,203.1681332595103
-87.6471436,41.8697059,0.0,1.4703493,16-21-47-064,1502140907065,0.03141833,0.08996275,0.34830648,61.0,-0.01110969,-0.021869568,0.0037002969,-0.7916850922620623,-0.6168624517524721,203.1032191416385
-87.6471436,41.8697059,0.0,1.4703493,16-21-47-086,1502140907086,0.001209284,0.06302857,0.35102692,61.0,-0.009511793,-0.024000097,0.01168978,-0.8077324616344487,-0.620065383586385,203.04644660925737
-87.6471436,41.8697059,0.0,1.4703493,16-21-47-093,1502140907094,0.001209284,0.06302857,0.35102692,61.0,6.082192E-4,-0.020271672,0.011157148,-0.8077324616344487,-0.620065383586385,203.04644660925737
-87.6471436,41.8697059,0.0,1.4703493,16-21-47-094,1502140907095,-0.0012018189,0.027939616,0.27958447,60.0,6.082192E-4,-0.020271672,0.011157148,-0.8357135055081695,-0.6294884299592108,202.9928023035161
-87.6471436,41.8697059,0.0,1.4703493,16-21-47-151,1502140907152,0.013656706,0.04803724,0.26736507,60.0,0.033631418,-0.016543247,-0.0010933933,-0.8783796695408292,-0.6545940709140621,202.8519228216954
-87.6471436,41.8697059,0.0,1.4703493,16-21-47-164,1502140907165,-0.0054048435,0.055187393,0.19375522,59.0,0.03203352,-0.010684293,-0.00748498,-0.8945264501821509,-0.6575531970111173,202.7506584370608
-87.6471436,41.8697059,0.0,1.4703493,16-21-47-188,1502140907189,0.024697486,0.036702864,0.17476436,58.0,0.018185083,-0.01015166,-0.010680774,-0.909173950939802,-0.65329468078532,202.64563744838267
-87.6471436,41.8697059,0.0,1.4703493,16-21-47-192,1502140907193,0.024697486,0.036702864,0.17476436,58.0,0.009662967,-0.010684293,-0.01227867,-0.909173950939802,-0.65329468078532,202.64563744838267
-87.6471436,41.8697059,0.0,1.4703493,16-21-47-197,1502140907198,0.028912788,0.061736945,0.19254395,58.0,0.004869277,-0.009619028,-0.014941832,-0.9199771757726465,-0.6429161549806328,202.55177698880837
-87.6471436,41.8697059,0.0,1.4703493,16-21-47-250,1502140907251,0.01666401,0.028317818,0.20079175,56.0,-0.018033909,-0.0037600736,-0.008017613,-0.9361053868371623,-0.6146742298971293,202.41212694103828
-87.6471436,41.8697059,0.0,1.4703493,16-21-47-264,1502140907265,0.06437071,-0.00388692,0.2687754,55.0,-0.012707587,-0.012814822,-0.0037565543,-0.9387354365544403,-0.6041183326174332,202.36320912620266
-87.6471436,41.8697059,0.0,1.4703493,16-21-47-292,1502140907293,0.040624216,-0.022362025,0.25265318,55.0,-0.012174955,-0.008553764,0.0015697678,-0.9487344066125158,-0.5979051549893959,202.31512459444576
-87.6471436,41.8697059,0.0,1.4703493,16-21-47-295,1502140907296,0.038714528,-0.044673525,0.21002322,54.0,-0.01110969,-0.013880086,-0.003223922,-0.9487344066125158,-0.5979051549893959,202.31512459444576
-87.6471436,41.8697059,0.0,1.4703493,16-21-47-296,1502140907297,0.038714528,-0.044673525,0.21002322,54.0,-0.01110969,-0.013880086,-0.003223922,-0.9595293071523094,-0.5988753086558022,202.26477243988444
-87.6471436,41.8697059,0.0,1.4703493,16-21-47-350,1502140907351,0.09209107,-0.06558653,0.28256544,53.0,-0.011642322,-0.01228219,-0.021333419,-0.98859261584436,-0.591700568458674,202.17219605587408
-87.6471436,41.8697059,0.0,1.4703493,16-21-47-364,1502140907365,0.096892536,-0.03358429,0.365056,52.0,-0.0057833674,-0.023467464,-0.028257638,-1.0043522101371065,-0.5729950281995363,202.13191160014935
-87.6471436,41.8697059,0.0,1.4703493,16-21-47-395,1502140907395,0.091188736,9.918133E-4,0.38839298,50.0,6.082192E-4,-0.039979067,-0.03891028,-1.0221015239124425,-0.5466196657501502,202.08105401158943
-87.6471436,41.8697059,0.0,1.4703493,16-21-47-396,1502140907397,0.091188736,9.918133E-4,0.38839298,50.0,7.5586955E-5,-0.040511698,-0.03891028,-1.0221015239124425,-0.5466196657501502,202.08105401158943
-87.6471436,41.8697059,0.0,1.4703493,16-21-47-394,1502140907397,0.091188736,9.918133E-4,0.38839298,50.0,7.5586955E-5,-0.040511698,-0.03891028,-1.0221015239124425,-0.5466196657501502,202.08105401158943
-87.64714611,41.86970742,0.0,1.468824,16-21-47-457,1502140907458,-0.026085889,0.074494295,0.31748095,43.0,0.00806507,-0.035185374,-0.018670257,-1.1452702184935766,-0.4314969340112911,201.885587657922
-87.64714611,41.86970742,0.0,1.468824,16-21-47-465,1502140907465,-0.0253367,0.07448973,0.28014955,41.0,0.00806507,-0.03571801,-0.018670257,-1.1796109155365198,-0.40878642161886647,201.8099228222966
-87.64714611,41.86970742,0.0,1.468824,16-21-47-491,1502140907492,-0.048493143,0.049464643,0.20801802,39.0,6.082192E-4,-0.028793788,-0.018137624,-1.2206539491459496,-0.389222545360555,201.7380145907147
-87.64714611,41.86970742,0.0,1.468824,16-21-47-495,1502140907496,-0.07796906,0.054800007,0.12268644,38.0,0.0038040127,-0.0074884994,-0.020800786,-1.2206539491459496,-0.389222545360555,201.7380145907147
-87.64714611,41.86970742,0.0,1.468824,16-21-47-495,1502140907498,-0.07796906,0.054800007,0.12268644,38.0,0.0038040127,-0.0074884994,-0.020800786,-1.25845424372521,-0.3686245624536477,201.67013617074312
-87.64714611,41.86970742,0.0,1.468824,16-21-47-551,1502140907551,-0.059526477,0.11948241,0.19860384,35.0,0.010728231,0.005827307,-0.01227867,-1.2811035778997955,-0.31813062810618303,201.53138770794348
-87.64714611,41.86970742,0.0,1.468824,16-21-47-565,1502140907565,-0.053220198,0.095080644,0.1501953,34.0,-0.008979161,0.016479952,-0.004821819,-1.2932849001193958,-0.28857509222664207,201.446679701857
-87.64714611,41.86970742,0.0,1.468824,16-21-47-592,1502140907592,-0.045255695,0.030503139,0.14991684,33.0,-0.06863397,-3.164797E-5,0.010091883,-1.286478616611478,-0.27536636014548366,201.37813192334673
-87.64714611,41.86970742,0.0,1.468824,16-21-47-597,1502140907597,-0.045255695,0.030503139,0.14991684,33.0,-0.088874,-5.642802E-4,0.011157148,-1.286478616611478,-0.27536636014548366,201.37813192334673
-87.64714611,41.86970742,0.0,1.468824,16-21-47-597,1502140907598,-0.045255695,0.030503139,0.14991684,33.0,-0.088874,-5.642802E-4,0.011157148,-1.286478616611478,-0.27536636014548366,201.37813192334673
-87.64714611,41.86970742,0.0,1.468824,16-21-47-651,1502140907652,0.07687378,-0.06323267,0.36773515,35.0,-0.010577058,-0.012814822,-0.03198606,-1.2813990903031043,-0.299697948568302,201.4268311721289
-87.64714611,41.86970742,0.0,1.468824,16-21-47-665,1502140907665,0.13276272,-0.04224271,0.40101016,35.0,-0.010577058,-0.012814822,-0.03198606,-1.284200108193044,-0.3004344083794734,201.45865985366117
-87.64714611,41.86970742,0.0,1.468824,16-21-47-692,1502140907693,0.08501699,-0.02422607,0.35846943,33.0,0.045881957,-0.004292706,-0.049030293,-1.2964053360747396,-0.27493018853395484,201.44047789009062
-87.64714611,41.86970742,0.0,1.468824,16-21-47-696,1502140907697,0.055300616,0.041338764,0.23038507,31.0,0.045881957,-0.004292706,-0.049030293,-1.3028974308808368,-0.23001718574905175,201.36284595998424
-87.64714611,41.86970742,0.0,1.468824,16-21-47-697,1502140907697,0.055300616,0.041338764,0.23038507,31.0,0.045881957,-0.004292706,-0.049030293,-1.3028974308808368,-0.23001718574905175,201.36284595998424
-87.64714611,41.86970742,0.0,1.468824,16-21-47-751,1502140907752,0.06331486,0.09314325,0.03885345,26.0,0.028837727,0.008490467,-0.028790269,-1.3178731542446185,-0.12264980030741153,201.13824201931754
-87.64714611,41.86970742,0.0,1.468824,16-21-47-766,1502140907766,0.033683494,0.09943653,-0.010191521,24.0,0.019782979,0.014349422,-0.024529211,-1.3267359650229449,-0.07666040906810334,201.02745635097995
-87.64714611,41.86970742,0.0,1.468824,16-21-47-791,1502140907792,0.04467868,0.103461616,0.09060615,23.0,0.0059345416,5.0098426E-4,-0.020268153,-1.317323110573021,-0.04442505447080379,200.9350848726447
-87.64714611,41.86970742,0.0,1.468824,16-21-47-798,1502140907801,0.040789474,0.10794469,0.19141175,22.0,0.0016734836,-0.0037600736,-0.014941832,-1.307968419452748,-0.019874197965824146,200.86114124469012
-87.64714611,41.86970742,0.0,1.468824,16-21-47-799,1502140907801,0.040789474,0.10794469,0.19141175,22.0,0.0016734836,-0.0037600736,-0.014941832,-1.307968419452748,-0.019874197965824146,200.86114124469012
-87.64714611,41.86970742,0.0,1.468824,16-21-47-852,1502140907856,-0.051010173,0.12289264,0.2592439,20.0,0.0064671733,-0.0053579705,0.0010371356,-1.3088976453449872,0.013631491775818438,200.73994636805742
-87.64714611,41.86970742,0.0,1.468824,16-21-47-867,1502140907867,-0.03687927,0.09201406,0.3248759,20.0,0.0064671733,-0.0053579705,0.0010371356,-1.3092153558630986,0.022668484050666567,200.68132968460037
-87.64714611,41.86970742,0.0,1.468824,16-21-47-892,1502140907893,-0.04300337,0.034002356,0.28169706,19.0,-9.896775E-4,0.018610481,0.007428723,-1.314749196472984,0.02604353965321172,200.61906568012654
-87.64714611,41.86970742,0.0,1.468824,16-21-47-896,1502140907897,-0.07568723,0.034480996,0.1955672,20.0,-0.011642322,0.025002068,0.010624515,-1.3109677262720298,0.020526676132178744,200.55237571307055
-87.64714611,41.86970742,0.0,1.468824,16-21-47-898,1502140907898,-0.07568723,0.034480996,0.1955672,20.0,-0.011642322,0.025002068,0.010624515,-1.3109677262720298,0.020526676132178744,200.55237571307055
-87.64714611,41.86970742,0.0,1.468824,16-21-47-952,1502140907952,-0.009009588,0.017818484,0.25417367,21.0,-0.043600257,0.039915767,0.0037002969,-1.264244216428971,-0.00200514868982636,200.45702627225717
-87.64714611,41.86970742,0.0,1.468824,16-21-47-967,1502140907968,-0.016001375,0.00577591,0.2218386,21.0,-0.043600257,0.039915767,0.0037002969,-1.2416651051367897,-0.011200724833767427,200.42687781726073
-87.64714611,41.86970742,0.0,1.468824,16-21-47-994,1502140907994,0.062032994,-0.035972662,0.33561054,21.0,-0.01590338,-5.642802E-4,-0.02186605,-1.2017472384714138,-0.017019454034656534,200.41609977875044
-87.64714611,41.86970742,0.0,1.468824,16-21-47-998,1502140907998,0.13116272,-0.07163708,0.4711078,21.0,-0.01590338,-5.642802E-4,-0.02186605,-1.1692694755245916,-0.010180809670750583,200.40340928727255
-87.64714611,41.86970742,0.0,1.468824,16-21-48-000,1502140908000,0.13116272,-0.07163708,0.4711078,21.0,-0.01590338,-5.642802E-4,-0.02186605,-1.1692694755245916,-0.010180809670750583,200.40340928727255
-87.64714611,41.86970742,0.0,1.468824,16-21-48-060,1502140908061,0.022912716,-0.09389355,0.45493835,19.0,0.023511404,-0.0037600736,-0.011746038,-1.1624566819926212,0.03441586914445298,200.32587297981456
-87.64714611,41.86970742,0.0,1.468824,16-21-48-068,1502140908069,0.022912716,-0.09389355,0.45493835,19.0,0.023511404,-0.0037600736,-0.011746038,-1.1624566819926212,0.03441586914445298,200.32587297981456
-87.64714611,41.86970742,0.0,1.468824,16-21-48-093,1502140908094,-0.016438285,0.082211725,0.2865903,17.0,-0.016968645,0.012751524,-0.023463948,-1.1679920167063877,0.06547244581581006,200.17652406342307
-87.64714611,41.86970742,0.0,1.468824,16-21-48-097,1502140908097,-0.011543505,0.14335631,0.12269495,16.0,-0.016968645,0.012751524,-0.023463948,-1.1713515092826818,0.08313568186532666,200.08965771755885
-87.64714611,41.86970742,0.0,1.468824,16-21-48-099,1502140908099,-0.011543505,0.14335631,0.12269495,16.0,-0.016968645,0.012751524,-0.023463948,-1.1713515092826818,0.08313568186532666,200.08965771755885
-87.64714611,41.86970742,0.0,1.468824,16-21-48-152,1502140908153,0.06580256,0.101494186,0.22705589,13.0,-0.043067623,-0.012814822,-0.009082877,-1.1527678452115466,0.13941203168576163,200.01570042922594
-87.64714611,41.86970742,0.0,1.468824,16-21-48-167,1502140908168,0.053225838,0.09624049,0.374558,11.0,-0.043067623,-0.012814822,-0.009082877,-1.141678499485502,0.1735761710067026,200.02130118434536
-87.64714611,41.86970742,0.0,1.468824,16-21-48-194,1502140908195,0.02695371,0.052501243,0.444697,10.0,-0.03241498,-0.002694809,0.01648347,-1.144850055137915,0.1959190671433498,200.02354148639313
-87.64714611,41.86970742,0.0,1.468824,16-21-48-198,1502140908199,0.028166968,0.033885196,0.3743478,10.0,-0.03241498,-0.002694809,0.01648347,-1.1592987867185482,0.1985109771910242,200.00744956070858
-87.64714611,41.86970742,0.0,1.468824,16-21-48-199,1502140908200,0.028166968,0.033885196,0.3743478,10.0,-0.03241498,-0.002694809,0.01648347,-1.1592987867185482,0.1985109771910242,200.00744956070858
-87.64714611,41.86970742,0.0,1.468824,16-21-48-252,1502140908253,0.114938475,0.08615769,0.3041366,12.0,-0.045198154,-0.024000097,0.0052981935,-1.1684326706295594,0.16684864811765163,199.97603069052653
-87.64714611,41.86970742,0.0,1.468824,16-21-48-267,1502140908268,0.14076456,0.10784833,0.33262083,13.0,-0.045198154,-0.024000097,0.0052981935,-1.1756792878955313,0.1448221151375803,199.97443242626073
-87.64714611,41.86970742,0.0,1.468824,16-21-48-294,1502140908294,0.10816967,0.09907136,0.4091411,14.0,-0.002587574,-0.040511698,-0.018137624,-1.232836658747725,0.13589942014209747,199.9606354441373
-87.64714611,41.86970742,0.0,1.468824,16-21-48-298,1502140908298,0.10816967,0.09907136,0.4091411,14.0,-0.002587574,-0.040511698,-0.018137624,-1.232836658747725,0.13589942014209747,199.9606354441373
-87.64714611,41.86970742,0.0,1.468824,16-21-48-299,1502140908300,0.10816967,0.09907136,0.4091411,14.0,-0.002587574,-0.040511698,-0.018137624,-1.232836658747725,0.13589942014209747,199.9606354441373
-87.64714611,41.86970742,0.0,1.468824,16-21-48-352,1502140908353,-0.0053919,0.07697382,0.38706577,12.0,-9.896775E-4,-0.0389138,0.0047655613,-1.314715045527134,0.16993398597200654,199.86338721073466
-87.64714611,41.86970742,0.0,1.468824,16-21-48-367,1502140908367,-0.04178657,0.07175757,0.3170135,12.0,-9.896775E-4,-0.0389138,0.0047655613,-1.361500987568075,0.1786635947213043,199.8019701497179
-87.64714611,41.86970742,0.0,1.468824,16-21-48-394,1502140908395,-0.04672915,0.034354497,0.07058982,13.0,-0.019631807,-0.015477982,0.005830826,-1.4459098527132677,0.17092212224583697,199.6968125572564
-87.64714611,41.86970742,0.0,1.468824,16-21-48-400,1502140908400,-0.04672915,0.034354497,0.07058982,13.0,-0.019631807,-0.015477982,0.005830826,-1.4459098527132677,0.17092212224583697,199.6968125572564
-87.64714611,41.86970742,0.0,1.468824,16-21-48-401,1502140908401,-0.04672915,0.034354497,0.07058982,13.0,-0.019631807,-0.015477982,0.005830826,-1.4459098527132677,0.17092212224583697,199.6968125572564
-87.64714772,41.86970995,0.0,1.6485329,16-21-48-452,1502140908453,-0.0023225674,0.009124541,0.13071017,13.0,0.004869277,0.002098881,-0.0037565543,-1.4715911505491042,0.15907825405991752,199.6263113446435
-87.64714772,41.86970995,0.0,1.6485329,16-21-48-467,1502140908467,0.031021947,0.0025044708,0.18957472,13.0,0.01765245,0.0047620414,-0.017072361,-1.469423525982977,0.15895511055165895,199.5772979071595
-87.64714772,41.86970995,0.0,1.6485329,16-21-48-496,1502140908497,0.051501304,0.055551697,0.28179052,12.0,0.010728231,0.0026315132,-0.01920289,-1.4589801667420277,0.19288767711126742,199.4297521607089
-87.64714772,41.86970995,0.0,1.6485329,16-21-48-499,1502140908500,0.051501304,0.055551697,0.28179052,12.0,0.010728231,0.0026315132,-0.01920289,-1.4589801667420277,0.19288767711126742,199.4297521607089
-87.64714772,41.86970995,0.0,1.6485329,16-21-48-500,1502140908501,0.051501304,0.055551697,0.28179052,12.0,0.010728231,0.0026315132,-0.01920289,-1.4589801667420277,0.19288767711126742,199.4297521607089
-87.64714772,41.86970995,0.0,1.6485329,16-21-48-551,1502140908555,0.030248702,0.04788131,0.3152402,10.0,-0.01590338,-0.013347453,0.005830826,-1.4628609948510642,0.23473684646553056,199.3016997741495
-87.64714772,41.86970995,0.0,1.6485329,16-21-48-567,1502140908568,0.020326799,0.037852395,0.3014906,10.0,-0.01590338,-0.013347453,0.005830826,-1.4778206032372732,0.2411011953898073,199.25787728043468
-87.64714772,41.86970995,0.0,1.6485329,16-21-48-595,1502140908596,-0.0053299316,5.154135E-4,0.15823707,10.0,-0.013240219,0.014349422,0.007961354,-1.5044025255481992,0.2311199678153179,199.1858324450694
-87.64714772,41.86970995,0.0,1.6485329,16-21-48-600,1502140908601,-0.0053299316,5.154135E-4,0.15823707,10.0,-0.013240219,0.014349422,0.007961354,-1.5044025255481992,0.2311199678153179,199.1858324450694
-87.64714772,41.86970995,0.0,1.6485329,16-21-48-601,1502140908602,-0.0053299316,5.154135E-4,0.15823707,10.0,-0.013240219,0.014349422,0.007961354,-1.5044025255481992,0.2311199678153179,199.1858324450694
-87.64714772,41.86970995,0.0,1.6485329,16-21-48-657,1502140908660,0.046915177,0.1151175,0.25833628,11.0,0.03203352,0.014882055,-0.009082877,-1.4655734337252055,0.21611178771276526,198.99872624294608
-87.64714772,41.86970995,0.0,1.6485329,16-21-48-668,1502140908668,0.046915177,0.1151175,0.25833628,11.0,0.03203352,0.014882055,-0.009082877,-1.4655734337252055,0.21611178771276526,198.99872624294608
-87.64714772,41.86970995,0.0,1.6485329,16-21-48-696,1502140908697,0.024511702,0.10733816,0.3322236,10.0,0.002206116,0.009023099,0.0010371356,-1.4385069948700318,0.23403056221666893,198.82452909835408
-87.64714772,41.86970995,0.0,1.6485329,16-21-48-700,1502140908700,0.024511702,0.10733816,0.3322236,10.0,0.002206116,0.009023099,0.0010371356,-1.4385069948700318,0.23403056221666893,198.82452909835408
-87.64714772,41.86970995,0.0,1.6485329,16-21-48-700,1502140908700,0.024511702,0.10733816,0.3322236,10.0,0.002206116,0.009023099,0.0010371356,-1.4385069948700318,0.23403056221666893,198.82452909835408
-87.64714772,41.86970995,0.0,1.6485329,16-21-48-751,1502140908752,-0.0045303577,0.07008273,0.38822243,9.0,7.5586955E-5,-0.0112169245,5.045034E-4,-1.4167751472000494,0.23062584631754982,198.71662576984622
-87.64714772,41.86970995,0.0,1.6485329,16-21-48-768,1502140908768,0.021445116,0.042832684,0.38345888,10.0,7.5586955E-5,-0.0112169245,5.045034E-4,-1.4143377301617068,0.22291022717530803,198.68296659761637
-87.64714772,41.86970995,0.0,1.6485329,16-21-48-797,1502140908797,-0.033937182,0.08114499,0.23984146,10.0,0.011793496,0.0042294096,0.01168978,-1.4288205059664842,0.2146017556172371,198.57820515612673
-87.64714772,41.86970995,0.0,1.6485329,16-21-48-800,1502140908800,-0.033937182,0.08114499,0.23984146,10.0,0.011793496,0.0042294096,0.01168978,-1.4288205059664842,0.2146017556172371,198.57820515612673
-87.64714772,41.86970995,0.0,1.6485329,16-21-48-800,1502140908801,-0.033937182,0.08114499,0.23984146,10.0,0.011793496,0.0042294096,0.01168978,-1.4288205059664842,0.2146017556172371,198.57820515612673
-87.64714772,41.86970995,0.0,1.6485329,16-21-48-851,1502140908852,0.048176944,0.042697404,0.29469174,11.0,0.0016734836,0.019675745,-0.005354451,-1.417712910828751,0.19551461855886457,198.43878733478843
-87.64714772,41.86970995,0.0,1.6485329,16-21-48-867,1502140908868,0.04491095,0.061810717,0.23859324,11.0,-0.014838116,0.019675745,5.045034E-4,-1.4071895103084655,0.19386544803942382,198.36929699017273
-87.64714772,41.86970995,0.0,1.6485329,16-21-48-896,1502140908896,0.080565386,0.041445684,0.33939135,10.0,-0.005250735,0.014882055,-0.0101481415,-1.3592036961294236,0.20650615384156049,198.2784691345899
-87.64714772,41.86970995,0.0,1.6485329,16-21-48-900,1502140908901,0.080565386,0.041445684,0.33939135,10.0,-0.005250735,0.014882055,-0.0101481415,-1.3592036961294236,0.20650615384156049,198.2784691345899
-87.64714772,41.86970995,0.0,1.6485329,16-21-48-900,1502140908901,0.080565386,0.041445684,0.33939135,10.0,-0.005250735,0.014882055,-0.0101481415,-1.3592036961294236,0.20650615384156049,198.2784691345899
-87.64714772,41.86970995,0.0,1.6485329,16-21-48-951,1502140908952,0.058788538,0.05853539,0.34407967,8.0,0.020848244,0.023404172,5.045034E-4,-1.3316566894331159,0.22758419766149918,198.18727244879187
-87.64714772,41.86970995,0.0,1.6485329,16-21-48-967,1502140908968,0.050584104,0.048448253,0.3761089,8.0,0.022978771,0.018610481,0.009026619,-1.30579930078274,0.2306647730597336,198.12638814253037
-87.64714772,41.86970995,0.0,1.6485329,16-21-49-000,1502140909001,-0.0019691964,0.10006798,0.27686563,8.0,-0.0041854708,0.021806274,0.019679263,-1.265328829124828,0.21852764696653992,197.97519507506297
-87.64714772,41.86970995,0.0,1.6485329,16-21-49-000,1502140909001,-0.0019691964,0.10006798,0.27686563,8.0,-0.0041854708,0.021806274,0.019679263,-1.265328829124828,0.21852764696653992,197.97519507506297
-87.64714772,41.86970995,0.0,1.6485329,16-21-49-001,1502140909002,-0.0019691964,0.10006798,0.27686563,8.0,-0.0041854708,0.021806274,0.019679263,-1.265328829124828,0.21852764696653992,197.97519507506297
-87.64714772,41.86970995,0.0,1.6485329,16-21-49-053,1502140909054,0.13250546,0.033774946,0.26183593,9.0,-0.03241498,-0.02453273,-0.018137624,-1.235902453189709,0.1851295560496982,197.88367054018482
-87.64714772,41.86970995,0.0,1.6485329,16-21-49-075,1502140909076,0.14846136,-0.025354447,0.3292556,9.0,-0.005250735,-0.024000097,-0.021333419,-1.2355574219149175,0.17959917055503738,197.85375431162015
-87.64714772,41.86970995,0.0,1.6485329,16-21-49-096,1502140909097,0.14846136,-0.025354447,0.3292556,9.0,0.013391392,-0.030391684,-0.019735523,-1.2553423455063286,0.1950508060255384,197.85375431162015
-87.64714772,41.86970995,0.0,1.6485329,16-21-49-122,1502140909123,0.101874895,-0.053744297,0.43676025,8.0,0.028305095,-0.032522213,-0.016007096,-1.2794621980648766,0.2172273763837252,197.82676140402026
-87.64714772,41.86970995,0.0,1.6485329,16-21-49-124,1502140909124,0.047031917,-0.017634958,0.4512608,7.0,0.028305095,-0.024000097,-0.017072361,-1.3125220211950308,0.23950437186705237,197.76292645603732
-87.64714772,41.86970995,0.0,1.6485329,16-21-49-155,1502140909155,-0.07645248,0.10151085,0.39758864,6.0,0.024044037,-0.015477982,-0.0101481415,-1.3693441791693652,0.2762518301383523,197.60133784065317
-87.64714772,41.86970995,0.0,1.6485329,16-21-49-167,1502140909168,-0.07645248,0.10151085,0.39758864,6.0,0.024044037,-0.015477982,-0.0101481415,-1.3693441791693652,0.2762518301383523,197.60133784065317
-87.64714772,41.86970995,0.0,1.6485329,16-21-49-196,1502140909197,-0.11414341,0.14326544,0.1824231,5.0,-0.019099174,0.008490467,-0.0016260255,-1.4048255178037006,0.30152361010867884,197.4539150376076
-87.64714772,41.86970995,0.0,1.6485329,16-21-49-201,1502140909202,-0.11414341,0.14326544,0.1824231,5.0,-0.019099174,0.008490467,-0.0016260255,-1.4048255178037006,0.30152361010867884,197.4539150376076
-87.64714772,41.86970995,0.0,1.6485329,16-21-49-201,1502140909202,-0.11414341,0.14326544,0.1824231,5.0,-0.019099174,0.008490467,-0.0016260255,-1.4048255178037006,0.30152361010867884,197.4539150376076
-87.64714772,41.86970995,0.0,1.6485329,16-21-49-259,1502140909260,0.05088504,0.007991271,0.30195683,5.0,-0.026556024,-0.0010969124,0.0031676646,-1.37549657878596,0.30175733064434024,197.39505246734043
-87.64714772,41.86970995,0.0,1.6485329,16-21-49-267,1502140909268,0.05088504,0.007991271,0.30195683,5.0,-0.026556024,-0.0010969124,0.0031676646,-1.37549657878596,0.30175733064434024,197.39505246734043
-87.64714772,41.86970995,0.0,1.6485329,16-21-49-295,1502140909296,0.04310472,-0.0030458057,0.49892142,5.0,0.0149892885,-0.008021131,0.005830826,-1.3724358002641481,0.2931175682310972,197.35419427572543
-87.64714772,41.86970995,0.0,1.6485329,16-21-49-302,1502140909303,0.04310472,-0.0030458057,0.49892142,5.0,0.0149892885,-0.008021131,0.005830826,-1.3724358002641481,0.2931175682310972,197.35419427572543
-87.64714772,41.86970995,0.0,1.6485329,16-21-49-302,1502140909303,0.04310472,-0.0030458057,0.49892142,5.0,0.0149892885,-0.008021131,0.005830826,-1.3724358002641481,0.2931175682310972,197.35419427572543
-87.64714772,41.86970995,0.0,1.6485329,16-21-49-356,1502140909357,-0.021987336,0.044033844,0.30157974,6.0,0.013924025,0.0042294096,-0.004821819,-1.4056026652652012,0.28593407685409494,197.18315267852995
-87.64714772,41.86970995,0.0,1.6485329,16-21-49-367,1502140909368,-0.021987336,0.044033844,0.30157974,6.0,0.013924025,0.0042294096,-0.004821819,-1.4056026652652012,0.28593407685409494,197.18315267852995
-87.64714772,41.86970995,0.0,1.6485329,16-21-49-400,1502140909400,0.029306313,0.08699383,0.27415428,5.0,0.020848244,0.016479952,-0.0042891866,-1.3993289230691328,0.2962261847575257,197.06078300936002
-87.64714772,41.86970995,0.0,1.6485329,16-21-49-402,1502140909416,0.07036793,0.09113335,0.27879846,5.0,0.0016734836,0.015414686,0.0010371356,-1.3861701367462802,0.30228304176701964,196.98560994735485
-87.64714772,41.86970995,0.0,1.6485329,16-21-49-403,1502140909416,0.07036793,0.09113335,0.27879846,5.0,0.0016734836,0.015414686,0.0010371356,-1.3861701367462802,0.30228304176701964,196.98560994735485
-87.64714983,41.86971221,0.0,1.8224514,16-21-49-457,1502140909458,0.056983016,0.106438495,0.28505874,4.0,-0.027088657,-5.642802E-4,0.0026350324,-1.3606076201689785,0.30423380782699877,196.9255589241721
-87.64714983,41.86971221,0.0,1.8224514,16-21-49-468,1502140909468,0.062233947,0.09897314,0.29117852,4.0,-0.027088657,-5.642802E-4,0.0026350324,-1.3609424061600148,0.29942570149685355,196.89188609156395
-87.64714983,41.86971221,0.0,1.8224514,16-21-49-496,1502140909497,0.06659562,0.05304127,0.37194338,5.0,7.5586955E-5,-0.012814822,0.0047655613,-1.3675508276254138,0.2947703406081081,196.85505771155923
-87.64714983,41.86971221,0.0,1.8224514,16-21-49-503,1502140909503,0.06659562,0.05304127,0.37194338,5.0,7.5586955E-5,-0.012814822,0.0047655613,-1.3675508276254138,0.2947703406081081,196.85505771155923
-87.64714983,41.86971221,0.0,1.8224514,16-21-49-503,1502140909503,0.06659562,0.05304127,0.37194338,5.0,7.5586955E-5,-0.012814822,0.0047655613,-1.3675508276254138,0.2947703406081081,196.85505771155923
-87.64714983,41.86971221,0.0,1.8224514,16-21-49-560,1502140909560,0.012518016,-0.008406067,0.36677945,5.0,0.025109302,-0.009086396,-2.8128852E-5,-1.3990420551239924,0.2872416311933293,196.69159762434248
-87.64714983,41.86971221,0.0,1.8224514,16-21-49-568,1502140909569,0.012518016,-0.008406067,0.36677945,5.0,0.025109302,-0.009086396,-2.8128852E-5,-1.3990420551239924,0.2872416311933293,196.69159762434248
-87.64714983,41.86971221,0.0,1.8224514,16-21-49-597,1502140909598,-0.032425947,0.017621126,0.32045513,5.0,0.018185083,-0.0037600736,-0.005354451,-1.4204696392107916,0.28681383723570436,196.53938002849958
-87.64714983,41.86971221,0.0,1.8224514,16-21-49-603,1502140909604,-0.032425947,0.017621126,0.32045513,5.0,0.018185083,-0.0037600736,-0.005354451,-1.4204696392107916,0.28681383723570436,196.53938002849958
-87.64714983,41.86971221,0.0,1.8224514,16-21-49-602,1502140909605,-0.032425947,0.017621126,0.32045513,5.0,0.018185083,-0.0037600736,-0.005354451,-1.4204696392107916,0.28681383723570436,196.53938002849958
-87.64714983,41.86971221,0.0,1.8224514,16-21-49-660,1502140909661,-0.02906689,0.026124619,0.24413444,4.0,-0.012707587,0.015414686,-0.0101481415,-1.4271021797816972,0.3034908646722012,196.326551333962
-87.64714983,41.86971221,0.0,1.8224514,16-21-49-668,1502140909671,-0.02906689,0.026124619,0.24413444,4.0,-0.012707587,0.015414686,-0.0101481415,-1.4271021797816972,0.3034908646722012,196.326551333962
-87.64714983,41.86971221,0.0,1.8224514,16-21-49-705,1502140909705,0.025500014,-0.024949834,0.37875715,3.0,0.0054019094,0.009023099,-0.003223922,-1.3970760278600864,0.32900394241929953,196.25273064941248
-87.64714983,41.86971221,0.0,1.8224514,16-21-49-705,1502140909706,0.025500014,-0.024949834,0.37875715,3.0,0.0054019094,0.009023099,-0.003223922,-1.3970760278600864,0.32900394241929953,196.25273064941248
-87.64714983,41.86971221,0.0,1.8224514,16-21-49-707,1502140909708,0.025500014,-0.024949834,0.37875715,3.0,0.0054019094,0.009023099,-0.003223922,-1.3970760278600864,0.32900394241929953,196.25273064941248
-87.64714983,41.86971221,0.0,1.8224514,16-21-49-759,1502140909760,0.10406453,0.022689758,0.38461217,2.0,6.082192E-4,-3.164797E-5,-0.0037565543,-1.3587731807683012,0.34724756445538874,196.10402377080297
-87.64714983,41.86971221,0.0,1.8224514,16-21-49-768,1502140909769,0.10406453,0.022689758,0.38461217,2.0,6.082192E-4,-3.164797E-5,-0.0037565543,-1.3587731807683012,0.34724756445538874,196.10402377080297
-87.64714983,41.86971221,0.0,1.8224514,16-21-49-803,1502140909803,0.058726333,0.030440893,0.51513505,1.0,-0.015370748,-0.030391684,-0.00748498,-1.358351309865347,0.3571081164610657,196.01480783986426
-87.64714983,41.86971221,0.0,1.8224514,16-21-49-804,1502140909805,0.058726333,0.030440893,0.51513505,1.0,-0.015370748,-0.030391684,-0.00748498,-1.358351309865347,0.3571081164610657,196.01480783986426
-87.64714983,41.86971221,0.0,1.8224514,16-21-49-805,1502140909806,0.058726333,0.030440893,0.51513505,1.0,-0.015370748,-0.030391684,-0.00748498,-1.358351309865347,0.3571081164610657,196.01480783986426
-87.64714983,41.86971221,0.0,1.8224514,16-21-49-859,1502140909860,-0.14695035,0.04867032,0.32284197,1.0,-0.017501276,-0.0074884994,0.008493986,-1.4520213779165483,0.3818476486042337,195.92846058837696
-87.64714983,41.86971221,0.0,1.8224514,16-21-49-869,1502140909870,-0.14695035,0.04867032,0.32284197,1.0,-0.017501276,-0.0074884994,0.008493986,-1.4520213779165483,0.3818476486042337,195.92846058837696
-87.64714983,41.86971221,0.0,1.8224514,16-21-49-902,1502140909903,-0.04656998,0.069628045,0.2909167,2.0,-0.030817082,0.009555732,0.017548734,-1.4682142623347676,0.36627383012082615,195.8798706226215
-87.64714983,41.86971221,0.0,1.8224514,16-21-49-904,1502140909904,-0.04656998,0.069628045,0.2909167,2.0,-0.030817082,0.009555732,0.017548734,-1.4682142623347676,0.36627383012082615,195.8798706226215
-87.64714983,41.86971221,0.0,1.8224514,16-21-49-905,1502140909905,-0.04656998,0.069628045,0.2909167,2.0,-0.030817082,0.009555732,0.017548734,-1.4682142623347676,0.36627383012082615,195.8798706226215
-87.64714983,41.86971221,0.0,1.8224514,16-21-49-959,1502140909960,0.091265395,0.054783586,0.31883863,3.0,-0.03028445,0.005827307,0.0010371356,-1.4285762199819505,0.3186982808592346,195.84582895979815
-87.64714983,41.86971221,0.0,1.8224514,16-21-49-968,1502140909969,0.091265395,0.054783586,0.31883863,3.0,-0.03028445,0.005827307,0.0010371356,-1.4285762199819505,0.3186982808592346,195.84582895979815
-87.64714983,41.86971221,0.0,1.8224514,16-21-50-002,1502140910003,0.077728115,0.02075938,0.47270396,3.0,0.016587187,0.007957836,-0.008017613,-1.4037750560536937,0.32059085690913636,195.81298941026873
-87.64714983,41.86971221,0.0,1.8224514,16-21-50-003,1502140910003,0.077728115,0.02075938,0.47270396,3.0,0.016587187,0.007957836,-0.008017613,-1.4037750560536937,0.32059085690913636,195.81298941026873
-87.64714983,41.86971221,0.0,1.8224514,16-21-50-005,1502140910008,0.077728115,0.02075938,0.47270396,3.0,0.016587187,0.007957836,-0.008017613,-1.4037750560536937,0.32059085690913636,195.81298941026873
-87.64714983,41.86971221,0.0,1.8224514,16-21-50-060,1502140910060,0.07536487,0.038131204,0.47458318,1.0,-0.002587574,-0.018673776,-0.004821819,-1.3898390155476348,0.3556831682454718,195.63440728422958
-87.64714983,41.86971221,0.0,1.8224514,16-21-50-068,1502140910069,0.07536487,0.038131204,0.47458318,1.0,-0.002587574,-0.018673776,-0.004821819,-1.3898390155476348,0.3556831682454718,195.63440728422958
-87.64714983,41.86971221,0.0,1.8224514,16-21-50-104,1502140910105,0.070172615,-0.015009343,0.42643204,1.0,6.082192E-4,-0.02932642,-0.0042891866,-1.4242291247403547,0.3703285879298601,195.5436750512951
-87.64714983,41.86971221,0.0,1.8224514,16-21-50-106,1502140910107,0.070172615,-0.015009343,0.42643204,1.0,6.082192E-4,-0.02932642,-0.0042891866,-1.4242291247403547,0.3703285879298601,195.5436750512951
-87.64714983,41.86971221,0.0,1.8224514,16-21-50-105,1502140910105,0.070172615,-0.015009343,0.42643204,1.0,6.082192E-4,-0.02932642,-0.0042891866,-1.4242291247403547,0.3703285879298601,195.5436750512951
-87.64714983,41.86971221,0.0,1.8224514,16-21-50-159,1502140910160,0.031470697,-0.05696436,0.45655128,1.0,0.0054019094,-0.0224022,-0.0042891866,-1.5088197369504932,0.3904119854519157,195.41887383478064
-87.64714983,41.86971221,0.0,1.8224514,16-21-50-168,1502140910171,0.031470697,-0.05696436,0.45655128,1.0,0.0054019094,-0.0224022,-0.0042891866,-1.5088197369504932,0.3904119854519157,195.41887383478064
-87.64714983,41.86971221,0.0,1.8224514,16-21-50-203,1502140910204,-0.004238002,-0.060717516,0.42552832,1.0,-0.010577058,-0.024000097,-0.009615509,-1.5592138331421994,0.4058600590854862,195.32784107352273
-87.64714983,41.86971221,0.0,1.8224514,16-21-50-207,1502140910208,-0.004238002,-0.060717516,0.42552832,1.0,-0.010577058,-0.024000097,-0.009615509,-1.5592138331421994,0.4058600590854862,195.32784107352273
-87.64714983,41.86971221,0.0,1.8224514,16-21-50-210,1502140910213,-0.004238002,-0.060717516,0.42552832,1.0,-0.0020549418,-0.01973904,-0.015474464,-1.5592138331421994,0.4058600590854862,195.32784107352273
-87.64714983,41.86971221,0.0,1.8224514,16-21-50-260,1502140910261,-0.019439934,-0.021777363,0.30898342,0.0,0.014456656,-0.006423235,-0.017604992,-1.6363276293669955,0.4498006136873088,195.21376325400516
-87.64714983,41.86971221,0.0,1.8224514,16-21-50-268,1502140910269,-0.019439934,-0.021777363,0.30898342,0.0,0.014456656,-0.006423235,-0.017604992,-1.6363276293669955,0.4498006136873088,195.21376325400516
-87.64714983,41.86971221,0.0,1.8224514,16-21-50-307,1502140910308,-0.04446324,0.059551273,0.23075241,359.0,6.082192E-4,0.020208377,-0.018137624,-1.6528635173475963,0.49088590909222796,195.09460377374512
-87.64714983,41.86971221,0.0,1.8224514,16-21-50-313,1502140910314,-0.04446324,0.059551273,0.23075241,359.0,-0.026023392,0.023936803,-0.005354451,-1.6528635173475963,0.49088590909222796,195.09460377374512
-87.64714983,41.86971221,0.0,1.8224514,16-21-50-316,1502140910316,-0.041010384,0.096047096,0.19537577,358.0,-0.026023392,0.023936803,-0.005354451,-1.6395288536536157,0.5141600988541638,195.03781758098563
-87.64714983,41.86971221,0.0,1.8224514,16-21-50-359,1502140910360,0.12761766,0.0754648,0.46934062,356.0,-0.020164438,-0.027195891,0.007428723,-1.5901082728620481,0.5322074863537473,195.0023142576799
-87.64714983,41.86971221,0.0,1.8224514,16-21-50-372,1502140910373,0.12761766,0.0754648,0.46934062,356.0,-0.0015223097,-0.037315905,0.012222412,-1.5901082728620481,0.5322074863537473,195.0023142576799
-87.64714983,41.86971221,0.0,1.8224514,16-21-50-405,1502140910406,0.07613792,0.05338115,0.48148426,357.0,0.0059345416,-0.04370749,0.014885573,-1.6411159121402916,0.5177309004079053,194.96230300952197
-87.64714983,41.86971221,0.0,1.8224514,16-21-50-408,1502140910413,0.07613792,0.05338115,0.48148426,357.0,0.010728231,-0.04637065,0.015950838,-1.6411159121402916,0.5177309004079053,194.96230300952197
-87.64714983,41.86971221,0.0,1.8224514,16-21-50-412,1502140910413,0.07613792,0.05338115,0.48148426,357.0,0.010728231,-0.04637065,0.015950838,-1.6411159121402916,0.5177309004079053,194.96230300952197
-87.64715333,41.86971388,0.0,1.94669,16-21-50-461,1502140910461,-0.035405356,0.08797782,0.36594778,0.0,0.014456656,-0.01973904,0.03778876,-1.7726588455306846,0.4555027010663587,194.8102629985975
-87.64715333,41.86971388,0.0,1.94669,16-21-50-469,1502140910469,-0.035405356,0.08797782,0.36594778,0.0,0.014456656,-0.01973904,0.03778876,-1.7726588455306846,0.4555027010663587,194.8102629985975
-87.64715333,41.86971388,0.0,1.94669,16-21-50-504,1502140910505,0.050193686,0.0042819106,0.2568727,3.0,-0.011642322,-0.0053579705,0.03139717,-1.822801825548687,0.375431299528815,194.69495574502935
-87.64715333,41.86971388,0.0,1.94669,16-21-50-506,1502140910507,0.050193686,0.0042819106,0.2568727,3.0,-0.011642322,-0.0053579705,0.03139717,-1.822801825548687,0.375431299528815,194.69495574502935
-87.64715333,41.86971388,0.0,1.94669,16-21-50-508,1502140910508,0.050193686,0.0042819106,0.2568727,3.0,-0.011642322,-0.0053579705,0.03139717,-1.822801825548687,0.375431299528815,194.69495574502935
-87.64715333,41.86971388,0.0,1.94669,16-21-50-560,1502140910560,0.10819157,-0.07313678,0.36104068,6.0,0.025641933,-0.024000097,-0.0064197155,-1.8423545227083178,0.2860693199357465,194.5639117356135
-87.64715333,41.86971388,0.0,1.94669,16-21-50-569,1502140910570,0.10819157,-0.07313678,0.36104068,6.0,0.025641933,-0.024000097,-0.0064197155,-1.8423545227083178,0.2860693199357465,194.5639117356135
-87.64715333,41.86971388,0.0,1.94669,16-21-50-605,1502140910605,-0.009137897,-8.4189605E-4,0.375982,6.0,-0.0015223097,-0.01973904,-0.0037565543,-1.8804701799281625,0.288296521894126,194.43778546240003
-87.64715333,41.86971388,0.0,1.94669,16-21-50-607,1502140910607,-0.009137897,-8.4189605E-4,0.375982,6.0,-0.0015223097,-0.01973904,-0.0037565543,-1.8804701799281625,0.288296521894126,194.43778546240003
-87.64715333,41.86971388,0.0,1.94669,16-21-50-607,1502140910608,-0.009137897,-8.4189605E-4,0.375982,6.0,-0.0015223097,-0.01973904,-0.0037565543,-1.8804701799281625,0.288296521894126,194.43778546240003
-87.64715333,41.86971388,0.0,1.94669,16-21-50-660,1502140910661,0.018908745,0.045140896,0.40486312,6.0,-0.014838116,-0.004825338,0.011157148,-1.919661165055461,0.28967160439269357,194.3437883990423
-87.64715333,41.86971388,0.0,1.94669,16-21-50-670,1502140910671,0.018908745,0.045140896,0.40486312,6.0,-0.014838116,-0.004825338,0.011157148,-1.919661165055461,0.28967160439269357,194.3437883990423
-87.64715333,41.86971388,0.0,1.94669,16-21-50-707,1502140910708,0.06239082,0.040550552,0.42144242,6.0,0.016587187,-0.0112169245,-0.0058870832,-1.9282309180297112,0.27143958834210813,194.28858681017027
-87.64715333,41.86971388,0.0,1.94669,16-21-50-705,1502140910708,0.06239082,0.040550552,0.42144242,6.0,0.016587187,-0.0112169245,-0.0058870832,-1.9282309180297112,0.27143958834210813,194.28858681017027
-87.64715333,41.86971388,0.0,1.94669,16-21-50-707,1502140910709,0.06239082,0.040550552,0.42144242,6.0,0.016587187,-0.0112169245,-0.0058870832,-1.9282309180297112,0.27143958834210813,194.28858681017027
-87.64715333,41.86971388,0.0,1.94669,16-21-50-760,1502140910760,0.03891176,0.016665881,0.3146332,6.0,6.082192E-4,-0.01973904,-0.0010933933,-1.960756278857312,0.2856686332913901,194.10350234404126
-87.64715333,41.86971388,0.0,1.94669,16-21-50-769,1502140910771,0.03891176,0.016665881,0.3146332,6.0,6.082192E-4,-0.01973904,-0.0010933933,-1.960756278857312,0.2856686332913901,194.10350234404126
-87.64715333,41.86971388,0.0,1.94669,16-21-50-831,1502140910832,-0.054474086,-0.009090119,0.4205916,6.0,0.009662967,-0.004825338,-0.00748498,-2.0031527571394623,0.2933203127916555,194.01309796018697
-87.64715333,41.86971388,0.0,1.94669,16-21-50-833,1502140910833,-0.054474086,-0.009090119,0.4205916,6.0,0.019250346,5.0098426E-4,-0.012811303,-2.0031527571394623,0.2933203127916555,194.01309796018697
-87.64715333,41.86971388,0.0,1.94669,16-21-50-832,1502140910833,-0.054474086,-0.009090119,0.4205916,6.0,0.019250346,5.0098426E-4,-0.012811303,-2.0031527571394623,0.2933203127916555,194.01309796018697
-87.64715333,41.86971388,0.0,1.94669,16-21-50-862,1502140910863,-0.01338186,0.0073620463,0.31586334,5.0,0.021380875,0.01381679,-0.021333419,-2.0064843953505473,0.3123959105655904,193.9173796891584
-87.64715333,41.86971388,0.0,1.94669,16-21-50-871,1502140910872,-0.01338186,0.0073620463,0.31586334,5.0,0.021380875,0.01381679,-0.021333419,-2.0064843953505473,0.3123959105655904,193.9173796891584
-87.64715333,41.86971388,0.0,1.94669,16-21-50-906,1502140910907,0.055755094,0.051897105,0.42750135,4.0,-0.0036528385,0.0047620414,0.00689609,-1.9725949176796482,0.35221153783682774,193.79216866129374
-87.64715333,41.86971388,0.0,1.94669,16-21-50-911,1502140910912,0.055755094,0.051897105,0.42750135,4.0,-0.0036528385,-0.0016295447,0.012222412,-1.9725949176796482,0.35221153783682774,193.79216866129374
-87.64715333,41.86971388,0.0,1.94669,16-21-50-912,1502140910913,0.055755094,0.051897105,0.42750135,4.0,-0.015370748,-0.0016295447,0.012222412,-1.9725949176796482,0.35221153783682774,193.79216866129374
-87.64715333,41.86971388,0.0,1.94669,16-21-50-963,1502140910964,0.06864151,0.0012347929,0.49516302,5.0,-0.048393946,-0.015477982,0.020744529,-1.972490543851394,0.3176280222328053,193.73896148765934
-87.64715333,41.86971388,0.0,1.94669,16-21-50-972,1502140910980,0.04716412,-0.006771659,0.54784167,5.0,-0.015370748,-0.01760851,0.009559251,-1.9896960038140676,0.2956535427647289,193.76150111192038
-87.64715333,41.86971388,0.0,1.94669,16-21-51-007,1502140911008,0.035973586,-0.004396849,0.45966578,6.0,0.006999806,-0.020804305,0.0026350324,-2.0062948576010795,0.27986035781508756,193.75811333809204
-87.64715333,41.86971388,0.0,1.94669,16-21-51-009,1502140911010,0.035973586,-0.004396849,0.45966578,6.0,0.006999806,-0.020804305,0.0026350324,-2.0062948576010795,0.27986035781508756,193.75811333809204
-87.64715333,41.86971388,0.0,1.94669,16-21-51-009,1502140911010,0.035973586,-0.004396849,0.45966578,6.0,0.006999806,-0.020804305,0.0026350324,-2.0062948576010795,0.27986035781508756,193.75811333809204
-87.64715333,41.86971388,0.0,1.94669,16-21-51-062,1502140911063,0.01452324,0.046343077,0.3382511,6.0,0.016587187,-0.0069558667,-0.005354451,-2.0644342815898744,0.27873249614796275,193.58735860884173
-87.64715333,41.86971388,0.0,1.94669,16-21-51-073,1502140911079,0.01452324,0.046343077,0.3382511,6.0,0.0016734836,-0.009619028,-0.0069523477,-2.0644342815898744,0.27873249614796275,193.58735860884173
-87.64715333,41.86971388,0.0,1.94669,16-21-51-108,1502140911109,0.030550353,0.0667315,0.38729584,5.0,-0.0036528385,-0.020271672,-0.0101481415,-2.0794329501203994,0.29254988879761923,193.47651829899075
-87.64715333,41.86971388,0.0,1.94669,16-21-51-110,1502140911111,0.030550353,0.0667315,0.38729584,5.0,-0.0036528385,-0.020271672,-0.0101481415,-2.0794329501203994,0.29254988879761923,193.47651829899075
-87.64715333,41.86971388,0.0,1.94669,16-21-51-120,1502140911121,0.024751922,0.06948715,0.38778794,5.0,-0.010577058,-0.009619028,-0.009082877,-2.0953782401812053,0.30396366850923945,193.43820093774698
-87.64715333,41.86971388,0.0,1.94669,16-21-51-163,1502140911163,-0.01819606,0.061379462,0.3979362,5.0,-0.006848632,-0.004292706,0.007961354,-2.1144748087703267,0.3219791995796472,193.38402387725046
-87.64715333,41.86971388,0.0,1.94669,16-21-51-171,1502140911171,-0.01819606,0.061379462,0.3979362,5.0,-0.006848632,-0.004292706,0.007961354,-2.1144748087703267,0.3219791995796472,193.38402387725046
-87.64715333,41.86971388,0.0,1.94669,16-21-51-207,1502140911208,0.016917337,0.020294113,0.38551837,5.0,6.082192E-4,-3.164797E-5,0.0015697678,-2.1166585483140263,0.30748441758296946,193.32345375969078
-87.64715333,41.86971388,0.0,1.94669,16-21-51-207,1502140911208,0.016917337,0.020294113,0.38551837,5.0,6.082192E-4,-3.164797E-5,0.0015697678,-2.1166585483140263,0.30748441758296946,193.32345375969078
-87.64715333,41.86971388,0.0,1.94669,16-21-51-209,1502140911210,0.016917337,0.020294113,0.38551837,5.0,6.082192E-4,-3.164797E-5,0.0015697678,-2.1166585483140263,0.30748441758296946,193.32345375969078
-87.64715333,41.86971388,0.0,1.94669,16-21-51-262,1502140911262,0.056376718,0.044946577,0.37759545,5.0,-0.0036528385,-0.0069558667,0.0031676646,-2.1140474950603774,0.30053104488405846,193.21014092136028
-87.64715333,41.86971388,0.0,1.94669,16-21-51-270,1502140911270,0.056376718,0.044946577,0.37759545,5.0,-0.0036528385,-0.0069558667,0.0031676646,-2.1140474950603774,0.30053104488405846,193.21014092136028
-87.64715333,41.86971388,0.0,1.94669,16-21-51-308,1502140911308,0.032071006,0.007848632,0.43508324,5.0,0.0059345416,-0.006423235,0.0026350324,-2.1303744219410583,0.2974157582510186,193.14070521825792
-87.64715333,41.86971388,0.0,1.94669,16-21-51-308,1502140911308,0.032071006,0.007848632,0.43508324,5.0,0.0059345416,-0.006423235,0.0026350324,-2.1303744219410583,0.2974157582510186,193.14070521825792
-87.64715333,41.86971388,0.0,1.94669,16-21-51-310,1502140911311,0.032071006,0.007848632,0.43508324,5.0,0.0059345416,-0.006423235,0.0026350324,-2.1303744219410583,0.2974157582510186,193.14070521825792
-87.64715333,41.86971388,0.0,1.94669,16-21-51-362,1502140911363,0.028467873,0.018205347,0.3388515,6.0,0.0032713804,0.0026315132,0.018081367,-2.1514310413785616,0.28293797168598656,193.012270341105
-87.64715333,41.86971388,0.0,1.94669,16-21-51-373,1502140911375,0.028467873,0.018205347,0.3388515,6.0,-4.5704527E-4,0.022871539,0.022342425,-2.1514310413785616,0.28293797168598656,193.012270341105
-87.64715333,41.86971388,0.0,1.94669,16-21-51-407,1502140911408,-0.05615691,0.08423842,0.300406,6.0,-0.018033909,0.030861022,0.025538217,-2.133326984653208,0.24066529058254296,192.9332996939213
-87.64715333,41.86971388,0.0,1.94669,16-21-51-408,1502140911409,-0.05615691,0.08423842,0.300406,6.0,-0.018033909,0.030861022,0.025538217,-2.133326984653208,0.24066529058254296,192.9332996939213
-87.64715333,41.86971388,0.0,1.94669,16-21-51-413,1502140911414,-0.05615691,0.08423842,0.300406,6.0,-0.018033909,0.030861022,0.025538217,-2.133326984653208,0.24066529058254296,192.9332996939213
