Longitude,Latitude,Speed,Distance,Time,Time in epoch, Acc X,Acc Y,Acc Z,Heading,gyro_x,gyro_y,gyro_z,pitch_deg,roll_deg,azimuth_deg
-87.64716512,41.8697197,0,9815988,14-53-52-681,1500580432682,0.23092061,-0.24163854,0.03609757,302,0.0050404766,0.050617807,0.006507878,-0.501256911,0.5226272389,168.0764208315
-87.6471702,41.86972187,0,0,14-53-52-790,1500580432790,0.17129847,-0.18744592,0.1742715,297,0.038596306,-0.01329806,-0.02651532,-0.6986876378,0.8783407695,168.7031043482
-87.6471702,41.86972187,0,0,14-53-52-880,1500580432887,0.11213059,-0.12917425,-0.048524227,297,0.037531044,0.006941964,0.001181556,-0.7450887947,0.9496140069,168.55008079
-87.6471702,41.86972187,0,0,14-53-52-979,1500580432980,0.21985567,-0.27741542,0.17301804,297,-0.026384825,-0.03194019,0.007573142,-0.7447677224,0.9535813863,168.603192341
-87.6471702,41.86972187,0,0,14-53-53-080,1500580433080,0.1450422,-0.20774344,-0.025218675,300,0.016758386,0.009605125,-0.0030795017,-0.8064363265,0.9214483345,168.580516113
-87.6471702,41.86972187,0,0,14-53-53-180,1500580433181,0.20753823,-0.21755466,0.045640323,302,-0.029047985,-0.014363325,0.024617374,-0.8402321559,0.8836953176,168.5633723381
-87.64717221,41.86972059,0,0.21922095,14-53-53-280,1500580433281,0.18895558,-0.19078869,0.095941156,308,0.019954178,-0.012232796,-0.0046773986,-0.9216542007,0.7861445282,168.6544460805
-87.64717221,41.86972059,0,0.21922095,14-53-53-398,1500580433399,0.20475829,-0.20608379,0.115809806,312,0.006105741,-0.017559119,0.008638408,-1.0137486294,0.7659690565,168.6359635886
-87.64717221,41.86972059,0,0.21922095,14-53-53-481,1500580433482,0.16372141,-0.23283188,0.04748307,314,-0.021591134,-0.001580152,0.012366833,-1.0582409086,0.7405821505,168.6230272104
-87.64717221,41.86972059,0,0.21922095,14-53-53-582,1500580433582,0.1683135,-0.2517469,0.04286421,318,-0.013601652,-0.021820176,0.007573142,-1.1773342214,0.6876424215,168.6865479696
-87.64717221,41.86972059,0,0.21922095,14-53-53-684,1500580433685,0.16208288,-0.22758117,-0.1023248,321,0.0013120507,0.026116723,0.013964729,-1.2381774398,0.6429988643,168.7158904623
-87.64717221,41.86972059,0,0.21922095,14-53-53-782,1500580433783,0.16943985,-0.2663409,0.04481878,323,-0.03011325,-0.01968965,0.008638408,-1.226402834,0.5823145545,168.8037676762
-87.64717221,41.86972059,0,0.21922095,14-53-53-883,1500580433884,0.1841005,-0.21298024,0.06700582,326,-0.0008184781,0.020790402,0.011301569,-1.2118137634,0.516109104,168.9069854949
-87.64717221,41.86972059,0,0.21922095,14-53-53-985,1500580433986,0.25888976,-0.14437485,0.0651955,326,0.0077036372,0.0016156414,-0.0041447664,-1.1154027617,0.4715894507,168.8959479092
-87.64717221,41.86972059,0,0.21922095,14-53-54-084,1500580434085,0.14641593,-0.22086641,0.036662754,324,-0.0045469035,0.011735654,0.010236304,-1.1136300075,0.5144105213,168.8253237532
-87.64717221,41.86972059,0,0.21922095,14-53-54-185,1500580434187,0.19677387,-0.23129444,0.13015912,327,0.0071710055,-0.014895958,0.0001162916,-1.1586873781,0.4545237962,168.8203377151
-87.64717036,41.86971599,0,0.6532311,14-53-54-299,1500580434299,0.1735812,-0.19362554,0.11501079,327,-0.014666916,0.000550377,0.0038447173,-1.2011084023,0.491143055,168.7467765777
-87.64717036,41.86971599,0,0.6532311,14-53-54-391,1500580434392,0.2317269,-0.21583754,0.19377927,328,0.003975212,-0.022885442,-0.0004163406,-1.2437863058,0.4650097908,168.8731487378
-87.64717036,41.86971599,0,0.6532311,14-53-54-491,1500580434492,0.18446293,-0.15608485,0.02479071,330,-0.010938491,-0.021287546,0.0054426137,-1.3660853252,0.4736445906,168.8678348506
-87.64717036,41.86971599,0,0.6532311,14-53-54-593,1500580434598,0.14151706,-0.25474393,0.03478426,332,0.0071710055,-0.029277027,-0.0004163406,-1.5142892244,0.4535459586,168.9112338726
-87.64717036,41.86971599,0,0.6532311,14-53-54-690,1500580434690,0.12051647,-0.26739812,0.012231631,335,-0.012536387,-0.0042433133,0.006507878,-1.5861519925,0.4069944575,168.9409178747
-87.64717036,41.86971599,0,0.6532311,14-53-54-791,1500580434792,0.19151995,-0.26689777,-0.013841189,336,-0.031711146,0.01812724,0.0070405104,-1.5319856042,0.3631926678,169.0935726027
-87.64717036,41.86971599,0,0.6532311,14-53-54-892,1500580434892,0.24063468,-0.22149971,0.117790416,332,-0.0066774325,0.026649356,-0.024917422,-1.3368302376,0.410884597,169.1636503435
-87.64717036,41.86971599,0,0.6532311,14-53-54-992,1500580434993,0.17096472,-0.239281,-0.040883955,327,-0.035439573,0.0074745957,-0.0020142372,-1.254139912,0.5134834832,169.2742037854
-87.64717036,41.86971599,0,0.6532311,14-53-55-093,1500580435094,0.20960209,-0.19039802,0.0048553883,323,-0.008807962,0.019192504,-0.016927939,-1.1840805273,0.5934775916,169.3086552596
-87.64717036,41.86971599,0,0.6532311,14-53-55-192,1500580435193,0.21769808,-0.18597703,0.031106392,320,0.01569312,0.018659871,-0.0137321465,-1.1483204316,0.6560680044,169.3700176791
-87.64716944,41.86970999,0,1.3210282,14-53-55-292,1500580435293,0.19613391,-0.19048375,0.07921047,315,0.009301534,-0.005308577,-0.005210031,-1.1181182956,0.7602680363,169.2885608431
-87.64716944,41.86970999,0,1.3210282,14-53-55-393,1500580435393,0.13391744,-0.22913814,-0.04426298,317,-0.007742697,-0.014895958,0.0049099815,-1.1973442211,0.7615413864,169.2725372193
-87.64716944,41.86970999,0,1.3210282,14-53-55-495,1500580435496,0.17169487,-0.19809361,-0.011791464,314,0.025280502,0.011735654,-0.017993204,-1.1513844117,0.816755355,169.1168772081
-87.64716944,41.86970999,0,1.3210282,14-53-55-594,1500580435594,0.2125499,-0.2601643,0.039066557,313,0.003975212,-0.01329806,0.007573142,-1.1863827279,0.8535493706,169.1074788678
-87.64716944,41.86970999,0,1.3210282,14-53-55-693,1500580435695,0.19740215,-0.2162692,0.043183222,314,0.010899431,-0.0021127842,-0.003612134,-1.1861846524,0.8373172659,169.0350652022
-87.64716944,41.86970999,0,1.3210282,14-53-55-793,1500580435797,0.24151796,-0.20371152,0.09466881,314,0.028476294,-0.005308577,-0.015330043,-1.1888728655,0.835415165,169.0043703321
-87.64716944,41.86970999,0,1.3210282,14-53-55-893,1500580435893,0.22211392,-0.13206722,0.070558324,311,0.04711842,0.010670389,-0.016927939,-1.173600776,0.9061943876,168.8149691864
-87.64716944,41.86970999,0,1.3210282,14-53-55-993,1500580436004,0.19088526,-0.16475773,0.11222984,308,0.001844683,-0.042060204,-0.024384791,-1.1917080343,1.0107292589,168.6241883425
-87.64716944,41.86970999,0,1.3210282,14-53-56-094,1500580436094,0.2567585,-0.19711865,0.207241,307,0.031139456,-0.0271465,-0.011601618,-1.2289579651,1.0987953702,168.4946606351
-87.64716944,41.86970999,0,1.3210282,14-53-56-196,1500580436197,0.17222555,-0.2158035,-0.019699235,313,-0.084441744,-0.11023713,0.046455294,-1.5465597338,1.0922372147,168.4100755724
-87.64716688,41.86970005,0,2.4391866,14-53-56-294,1500580436295,0.1385997,-0.3028506,0.1800983,323,0.0007794186,0.006409331,0.022486845,-1.8104105817,0.8761137009,168.7155352925
-87.64716688,41.86970005,0,2.4391866,14-53-56-395,1500580436396,0.10879704,-0.26200366,-0.08946769,325,0.04392263,-0.0106349,-0.044092186,-1.8978248368,0.843162307,168.6086291716
-87.64716688,41.86970005,0,2.4391866,14-53-56-496,1500580436497,0.3207235,-0.10473396,0.17369168,321,0.050314218,0.000550377,-0.027580583,-1.8368705211,0.9654032698,168.3491366246
-87.64716688,41.86970005,0,2.4391866,14-53-56-598,1500580436598,0.3070594,-0.20801964,0.21416464,314,0.023682605,-0.054843374,-0.058473255,-1.7088217631,1.163416537,168.0094713172
-87.64716688,41.86970005,0,2.4391866,14-53-56-697,1500580436697,0.11240319,-0.23923519,0.041677512,313,0.015160489,-0.023950707,0.0027794528,-1.9555896676,1.3497980988,167.9004888188
-87.64716688,41.86970005,0,2.4391866,14-53-56-797,1500580436801,0.15693668,-0.2764613,-0.0451124,317,-0.028515354,-0.016493855,0.044324767,-2.0951389701,1.2715863496,167.8430742487
-87.64716688,41.86970005,0,2.4391866,14-53-56-897,1500580436898,0.20919555,-0.26612014,0.050602596,322,0.0050404766,0.014398815,0.017160524,-2.1328093844,1.0539243358,167.9491470865
-87.64716688,41.86970005,0,2.4391866,14-53-56-997,1500580437001,0.22493835,-0.21746129,-0.038960356,323,-0.045559585,0.01812724,0.008638408,-2.121265084,1.0031405986,167.9963027125
-87.64716688,41.86970005,0,2.4391866,14-53-57-096,1500580437097,0.1445131,-0.1839654,-0.0025675234,323,-0.0018837426,0.03943253,-0.0030795017,-2.1140201743,0.9701904854,168.0951218894
-87.64716688,41.86970005,0,2.4391866,14-53-57-197,1500580437198,0.19559632,-0.16007455,-0.02350081,322,-0.03970063,0.06127045,0.005975246,-2.0231878364,0.9791731446,168.100271852
-87.64716688,41.86970005,0,2.4391866,14-53-57-296,1500580437297,0.19559632,-0.16007455,-0.02350081,322,-0.03970063,0.06127045,0.005975246,-2.0231878364,0.9791731446,168.100271852
-87.64716688,41.86970005,0,2.4391866,14-53-57-397,1500580437398,0.19559632,-0.16007455,-0.02350081,322,-0.03970063,0.06127045,0.005975246,-2.0231878364,0.9791731446,168.100271852
-87.64716688,41.86970005,0,2.4391866,14-53-57-497,1500580437498,0.19559632,-0.16007455,-0.02350081,322,-0.03970063,0.06127045,0.005975246,-2.0231878364,0.9791731446,168.100271852
-87.64716688,41.86970005,0,2.4391866,14-53-57-597,1500580437598,0.19559632,-0.16007455,-0.02350081,322,-0.03970063,0.06127045,0.005975246,-2.0231878364,0.9791731446,168.100271852
-87.64716688,41.86970005,0,2.4391866,14-53-57-698,1500580437728,0.18000719,-0.16785927,0.028915795,317,-0.012536387,0.027181987,-0.0009489729,-1.6652296816,0.9926921167,168.2107569921
-87.64716481,41.86969193,0,3.3554296,14-53-57-799,1500580437799,0.14704013,-0.22462772,0.06160652,260,-0.014134284,0.051150437,-0.0030795017,-0.0380612325,1.2151034599,167.8069562083
-87.64716481,41.86969193,0,3.3554296,14-53-57-901,1500580437902,0.1889078,-0.18267591,0.0008584468,243,0.041792102,0.08949996,-0.032374274,0.344089936,1.3178064532,167.6698060098
-87.64716481,41.86969193,0,3.3554296,14-53-58-001,1500580438002,0.20084569,-0.19265206,0.11769352,227,-0.021058502,0.07405362,-0.0004163406,0.8257677362,1.4050550762,167.5891414757
-87.64716481,41.86969193,0,3.3554296,14-53-58-102,1500580438102,0.23843457,-0.21092528,0.20998809,218,0.014627856,0.06393361,-0.01000372,1.2010776665,1.4320370982,167.6484138573
-87.64716481,41.86969193,0,3.3554296,14-53-58-202,1500580438202,0.20327438,-0.18372855,0.18213339,213,-0.010938491,0.04209569,0.005975246,1.4644563776,1.4618372135,167.5623124926
-87.6471641,41.86968767,0,3.8322282,14-53-58-302,1500580438303,0.17496876,-0.20926642,0.14707501,208,0.012497327,0.044226218,0.0001162916,1.6832998008,1.4443930171,167.5186539235
-87.6471641,41.86968767,0,3.8322282,14-53-58-402,1500580438403,0.16158609,-0.23699641,0.15592273,204,0.02208471,0.050085172,0.0038447173,1.9518309292,1.4366214358,167.4622638817
-87.6471641,41.86968767,0,3.8322282,14-53-58-503,1500580438504,0.14923272,-0.17911187,0.023827853,199,0.08600057,0.10707682,-0.03557007,2.4317035851,1.5259346969,167.1068891392
-87.6471641,41.86968767,0,3.8322282,14-53-58-605,1500580438605,0.17300536,-0.23050784,0.1994088,196,-0.005612168,0.045291483,0.011301569,2.9633554783,1.644615637,166.8067979478
-87.6471641,41.86968767,0,3.8322282,14-53-58-703,1500580438704,0.30757305,-0.24388058,0.15148625,192,0.0034425796,0.045291483,-0.009471089,3.2994009989,1.5523038161,166.8577101779
-87.6471641,41.86968767,0,3.8322282,14-53-58-803,1500580438804,0.22357751,-0.26150826,0.10067793,190,-0.015199549,0.043693587,0.021954214,3.6288120579,1.5343811863,166.8381758368
-87.6471641,41.86968767,0,3.8322282,14-53-58-903,1500580438904,0.17309652,-0.26552048,0.049390715,188,-0.018395342,0.07778205,-0.012666881,3.9193772698,1.488586262,166.9485380334
-87.6471641,41.86968767,0,3.8322282,14-53-59-003,1500580439004,0.15385365,-0.19038866,0.06709678,186,-0.019460605,0.07192309,-0.012666881,4.3185885933,1.5200082271,167.0313062658
-87.6471641,41.86968767,0,3.8322282,14-53-59-104,1500580439104,0.26865456,-0.13758199,0.052769113,186,0.016225753,0.070325196,-0.029711112,4.7791076948,1.6200517155,167.0103785662
-87.6471641,41.86968767,0,3.8322282,14-53-59-203,1500580439203,0.20481871,-0.21320072,0.08586008,186,-0.0093405945,0.047422014,0.005975246,5.099088397,1.7408476664,166.8992787091
-87.6471648,41.86968622,0,3.9849696,14-53-59-305,1500580439306,0.16461147,-0.1979136,0.047051355,184,-0.021058502,0.05328097,0.0027794528,5.3791936011,1.6647803832,166.8253760623
-87.6471648,41.86968622,0,3.9849696,14-53-59-404,1500580439404,0.094165124,-0.17435224,-0.0029070666,183,-0.01306902,0.07245573,0.0027794528,5.663769164,1.6224480446,166.8838424816
-87.6471648,41.86968622,0,3.9849696,14-53-59-505,1500580439505,0.13417856,-0.12159786,0.022712877,182,0.009301534,0.1017505,0.012366833,6.0814219983,1.6290473948,166.8807825569
-87.6471648,41.86968622,0,3.9849696,14-53-59-605,1500580439606,0.24778259,-0.22923192,0.053392813,180,-0.0040142713,0.07405362,0.005975246,6.5926898322,1.5365699418,166.8817661041
-87.6471648,41.86968622,0,3.9849696,14-53-59-706,1500580439706,0.17112234,-0.15189323,0.09479899,179,0.0066383732,0.10388103,0.001181556,7.1152197943,1.5049310114,166.8180814203
-87.6471648,41.86968622,0,3.9849696,14-53-59-806,1500580439808,0.22470853,-0.12396541,0.18841887,178,0.01569312,0.0538136,0.006507878,7.5743946291,1.528031565,166.7085661671
-87.6471648,41.86968622,0,3.9849696,14-53-59-907,1500580439909,0.24423537,-0.16146952,0.17188595,177,0.026878398,0.043160953,0.020888949,7.9063307238,1.4616377507,166.5567857034
-87.6471648,41.86968622,0,3.9849696,14-54-00-010,1500580440011,0.15569888,-0.21809,0.19384687,176,0.044987895,0.027181987,-0.01000372,8.1165323568,1.3874657383,166.403174749
-87.6471648,41.86968622,0,3.9849696,14-54-00-111,1500580440112,0.13547447,-0.2000681,0.23015055,176,0.025280502,0.04209569,-0.0014816051,8.3317558864,1.471718683,166.1819312614
-87.6471648,41.86968622,0,3.9849696,14-54-00-211,1500580440212,0.16657355,-0.24431884,0.2064885,176,0.03433525,0.050617807,0.007573142,8.5243740512,1.4827619249,166.0479912518
-87.64716596,41.86968343,0,4.2840457,14-54-00-313,1500580440315,0.14841847,-0.2581995,0.1830154,176,-0.0226564,0.038367264,0.015562626,8.8548527542,1.5184889369,165.878807466
-87.64716596,41.86968343,0,4.2840457,14-54-00-410,1500580440411,0.19716944,-0.20449814,0.20117065,175,-0.048222747,0.03197568,0.007573142,9.0279638987,1.4334294963,166.0155751739
-87.64716596,41.86968343,0,4.2840457,14-54-00-513,1500580440513,0.25343597,-0.219944,0.1650783,175,-0.0018837426,0.005344067,0.012899466,9.186950212,1.3502922203,166.1851141295
-87.64716596,41.86968343,0,4.2840457,14-54-00-611,1500580440612,0.24519786,-0.23269863,0.106569275,174,-0.013601652,0.0074745957,-0.0014816051,9.2384336166,1.2744604719,166.2181449244
-87.64716596,41.86968343,0,4.2840457,14-54-00-716,1500580440717,0.20483395,-0.15970819,0.109545276,174,0.020486811,0.009605125,-0.005210031,9.3178559101,1.285646294,166.2135686976
-87.64716596,41.86968343,0,4.2840457,14-54-00-813,1500580440818,0.17975755,-0.14037964,0.089266695,174,0.026345767,0.022388298,-0.016927939,9.3709520931,1.3505890133,166.13891473
-87.64716596,41.86968343,0,4.2840457,14-54-00-913,1500580440919,0.18521272,-0.14666235,0.13916883,175,-0.008807962,0.024518827,-0.003612134,9.4866264694,1.4302549524,166.0323774393
-87.64716596,41.86968343,0,4.2840457,14-54-01-012,1500580441012,0.18831047,-0.19055033,0.10593189,175,0.0007794186,0.015996711,-0.019058468,9.5938612931,1.4731504614,166.0252057407
-87.64716596,41.86968343,0,4.2840457,14-54-01-112,1500580441115,0.23549391,-0.16522129,0.27367643,175,0.019954178,-0.012232796,0.005975246,9.6537372927,1.5674720655,165.9623543399
-87.64716596,41.86968343,0,4.2840457,14-54-01-215,1500580441215,0.250597,-0.1531763,0.11116296,175,0.0007794186,0.005344067,-0.0046773986,9.5622375173,1.5128830592,165.8997624864
-87.64716596,41.86968343,0,4.2840457,14-54-01-314,1500580441315,0.131058,-0.19511771,0.11786499,176,-0.010405858,-0.010102267,-0.015862675,9.5171113112,1.6473296767,165.8361734252
-87.64716613,41.86968253,0,4.3825684,14-54-01-415,1500580441418,0.14324313,-0.16260652,0.07196317,176,0.040194202,-0.01329806,-0.02172163,9.4664099632,1.7428346111,165.79302029
-87.64716613,41.86968253,0,4.3825684,14-54-01-513,1500580441514,0.13315023,-0.24057464,0.15120324,177,-0.02318903,-0.05111495,-0.0030795017,9.3185799101,1.8407776028,165.7139130391
-87.64716613,41.86968253,0,4.3825684,14-54-01-617,1500580441618,0.21418566,-0.18242675,0.11568544,177,0.012497327,-0.021287546,-0.0078731915,9.1420972135,1.8397643869,165.718748813
-87.64716613,41.86968253,0,4.3825684,14-54-01-716,1500580441717,0.09336001,-0.14383931,0.046245325,178,-0.0072100647,-0.02501597,0.0022468206,9.0088871803,1.8840970104,165.6736422437
-87.64716613,41.86968253,0,4.3825684,14-54-01-814,1500580441815,0.10958269,-0.19547002,-0.0294705,178,-0.01306902,-0.0031780486,-0.005210031,8.9199060371,1.8846626354,165.686469339
-87.64716613,41.86968253,0,4.3825684,14-54-01-913,1500580441914,0.1808123,-0.2165412,0.14415933,178,-0.011471123,0.006409331,0.0006489238,8.9223256317,1.9059969447,165.7650028541
-87.64716613,41.86968253,0,4.3825684,14-54-02-014,1500580442015,0.25288394,-0.13457103,0.016309967,178,-0.0061448,-0.0005148875,-0.012666881,8.9911184432,1.9029675424,165.7534871551
-87.64716613,41.86968253,0,4.3825684,14-54-02-114,1500580442116,0.21084242,-0.2133594,0.2772662,178,0.001844683,-0.026613867,0.010768937,8.910620395,1.8983232272,165.8120765178
-87.64716613,41.86968253,0,4.3825684,14-54-02-215,1500580442215,0.24398668,-0.13682848,0.15735935,178,0.023149973,-0.042592835,-0.01479741,8.7427369065,1.8859213112,165.8070494986
-87.64716633,41.86968086,0,4.5663285,14-54-02-316,1500580442317,0.19048859,-0.1400847,0.23305687,179,-0.0002858459,-0.10863923,0.003312085,8.3435704061,1.9658545882,165.7315759083
-87.64716633,41.86968086,0,4.5663285,14-54-02-413,1500580442415,0.10216476,-0.16597855,0.06702755,180,-0.018927973,-0.16563088,-0.008405823,7.6732197825,1.9467456399,165.7427091166
-87.64716633,41.86968086,0,4.5663285,14-54-02-514,1500580442515,0.02705022,-0.16028772,-0.05249252,182,-0.048755378,-0.12674873,0.010236304,6.9496807682,1.968129895,165.8361051233
-87.64716633,41.86968086,0,4.5663285,14-54-02-616,1500580442617,0.17128395,-0.14113674,0.023532385,184,-0.0013511104,-0.14698875,-0.023852158,6.0087235992,1.9430187045,166.063960234
-87.64716633,41.86968086,0,4.5663285,14-54-02-715,1500580442716,0.19607048,-0.18179998,0.12680097,186,-0.026384825,-0.12834662,0.029411064,5.5028686902,1.9796116564,166.1198311814
-87.64716633,41.86968086,0,4.5663285,14-54-02-814,1500580442815,0.2606702,-0.2069961,0.09101235,187,-0.005612168,-0.12035714,0.016627891,4.8881260517,1.8126954935,166.284206514
-87.64716633,41.86968086,0,4.5663285,14-54-02-917,1500580442917,0.20556824,-0.18762046,0.15364508,188,-0.007742697,-0.10757396,0.011301569,4.2005373113,1.7016033204,166.3404736124
-87.64716633,41.86968086,0,4.5663285,14-54-03-017,1500580443018,0.21376614,-0.20347995,0.1719667,190,-0.0018837426,-0.09532342,0.010236304,3.5874791681,1.6035244719,166.3712914259
-87.64716633,41.86968086,0,4.5663285,14-54-03-118,1500580443118,0.18317607,-0.20063724,0.08842852,194,0.006105741,-0.087866575,-0.014264778,3.0832180411,1.6187311411,166.3244499886
-87.64716633,41.86968086,0,4.5663285,14-54-03-220,1500580443221,0.24926908,-0.15827687,0.12374159,200,-0.0040142713,-0.094790794,-0.033972174,2.5594708113,1.6976779893,166.3261575359
-87.6471667,41.86967943,0,4.72279,14-54-03-318,1500580443318,0.19662812,-0.22273658,0.19647719,209,-0.04662485,-0.12887925,0.026747903,1.94477449,1.7858753683,166.4540459979
-87.6471667,41.86967943,0,4.72279,14-54-03-417,1500580443418,0.27726504,-0.17876372,0.14655572,216,0.019954178,-0.06815918,0.008105775,1.3983058888,1.6549230328,166.6026026124
-87.6471667,41.86967943,0,4.72279,14-54-03-517,1500580443518,0.14179154,-0.22805609,0.19886284,228,-0.024786927,-0.06922445,0.046455294,0.8403858885,1.517229941,166.7525252646
-87.6471667,41.86967943,0,4.72279,14-54-03-618,1500580443619,0.30650434,-0.20899892,0.13762818,237,0.0002467863,-0.0271465,0.013432098,0.4548954012,1.2753229967,166.8995928978
-87.6471667,41.86967943,0,4.72279,14-54-03-721,1500580443721,0.14846574,-0.16228373,0.01931901,248,-0.019460605,-0.043125466,0.018225787,0.1942919347,1.1732181786,166.9063547851
-87.6471667,41.86967943,0,4.72279,14-54-03-819,1500580443820,0.28408974,-0.16520083,0.16860971,258,0.025280502,-0.039397042,0.006507878,-0.0210028317,1.038932284,167.0729840801
-87.6471667,41.86967943,0,4.72279,14-54-03-919,1500580443919,0.15070249,-0.20929372,0.11870937,280,-0.0072100647,-0.09212763,0.013432098,-0.4271639794,1.0103268114,167.1019304218
-87.6471667,41.86967943,0,4.72279,14-54-04-019,1500580444020,0.24955666,-0.1848049,0.14218642,300,-0.014134284,-0.04152757,-0.0073405597,-0.8851867535,0.955939189,167.1597274826
-87.6471667,41.86967943,0,4.72279,14-54-04-120,1500580444121,0.2603487,-0.14916132,0.15290204,310,-0.008807962,-0.104910806,-0.0046773986,-1.2575626906,0.9528696593,167.3072868894
-87.64716705,41.86967851,0,4.823123,14-54-04-228,1500580444231,0.17050733,-0.16320269,0.07144664,318,0.026345767,-0.06656128,-0.005742663,-1.7447135534,0.962692752,167.3376675708
-87.64716705,41.86967851,0,4.823123,14-54-04-321,1500580444322,0.2396561,-0.17982239,0.042142738,323,0.0007794186,-0.09905185,0.013964729,-2.1253113308,0.9470070091,167.230583865
-87.64716705,41.86967851,0,4.823123,14-54-04-423,1500580444424,0.3104996,-0.2525484,0.4292051,329,0.13819852,-0.1975888,-0.030776378,-2.7050904444,0.9042795868,167.1526787274
-87.64716705,41.86967851,0,4.823123,14-54-04-521,1500580444522,0.14404713,-0.17245346,-0.009088494,332,0.009834166,-0.15604348,0.008638408,-3.7346560844,0.9774536445,166.6733770325
-87.64716705,41.86967851,0,4.823123,14-54-04-622,1500580444623,0.21340871,-0.21965566,-0.057579324,335,0.031139456,-0.064963385,-0.012134249,-4.5064602035,0.9201477171,166.5831365732
-87.64716705,41.86967851,0,4.823123,14-54-04-722,1500580444722,0.23829782,-0.21632503,0.1725692,335,0.006105741,-0.08467078,0.0006489238,-4.8728294162,0.9987590323,166.4712034331
-87.64716705,41.86967851,0,4.823123,14-54-04-822,1500580444823,0.28347135,-0.17967816,0.15234904,336,0.016225753,-0.08040972,-0.01479741,-5.2171759645,0.9851411292,166.446792337
-87.64716705,41.86967851,0,4.823123,14-54-04-924,1500580444924,0.2358266,-0.17528197,0.1852454,336,0.010899431,-0.09958448,-0.0020142372,-5.6346610322,1.0430846121,166.4036938433
-87.64716705,41.86967851,0,4.823123,14-54-05-022,1500580445023,0.24948049,-0.23694424,0.13196297,337,0.04339,-0.054310743,-0.0195911,-6.1175327815,1.0550787444,166.3766053131
-87.64716705,41.86967851,0,4.823123,14-54-05-124,1500580445125,0.26839566,-0.1713572,0.1379369,336,-0.018395342,-0.067093916,0.014497362,-6.427656667,1.1137147445,166.2022032628
-87.64716705,41.86967851,0,4.823123,14-54-05-223,1500580445224,0.20611912,-0.20926476,0.042139195,338,0.017823651,-0.08147499,0.0054426137,-7.0311832812,1.0564381655,166.2944791185
-87.64716729,41.86967796,0,4.8830967,14-54-05-322,1500580445323,0.29174146,-0.18408091,0.17999738,338,0.005573109,-0.06070233,0.017160524,-7.3485202733,1.0178383119,166.2358077935
-87.64716729,41.86967796,0,4.8830967,14-54-05-424,1500580445425,0.19393387,-0.18259886,0.07311757,339,-0.027982721,-0.087866575,0.017160524,-7.7864728566,0.9338825871,166.2899711937
-87.64716729,41.86967796,0,4.8830967,14-54-05-523,1500580445523,0.14232355,-0.21209602,0.032883525,340,-0.002949007,-0.024483338,0.010236304,-8.3341404762,0.8687610556,166.4185153538
-87.64716729,41.86967796,0,4.8830967,14-54-05-623,1500580445623,0.27828485,-0.22143988,0.1433716,341,0.0045078443,-0.025548603,0.016095258,-8.4838420011,0.8014960187,166.5644901568
-87.64716729,41.86967796,0,4.8830967,14-54-05-724,1500580445725,0.2621892,-0.19865377,0.123285405,342,-0.0024163749,-0.067093916,-0.0041447664,-8.7330286464,0.7496666756,166.5245608709
-87.64716729,41.86967796,0,4.8830967,14-54-05-824,1500580445825,0.25970593,-0.23133974,0.124771535,342,0.01569312,-0.111835025,0.008638408,-9.2276982668,0.7577369177,166.5614985339
-87.64716729,41.86967796,0,4.8830967,14-54-05-924,1500580445925,0.2504858,-0.17551886,0.018458236,342,-0.031178515,-0.1363361,-0.027580583,-9.981770788,0.7498533852,166.4918715855
-87.64716729,41.86967796,0,4.8830967,14-54-06-024,1500580446024,0.18118212,-0.16710263,0.087227955,342,-0.014666916,-0.1230203,-0.028113216,-10.6143820551,0.9063976925,166.5718804215
-87.64716729,41.86967796,0,4.8830967,14-54-06-124,1500580446125,0.2554016,-0.18659966,0.08676304,341,-0.0002858459,-0.100649744,-0.0014816051,-11.1483628293,1.0301949779,166.5717438177
-87.64716729,41.86967796,0,4.8830967,14-54-06-225,1500580446225,0.18092692,-0.25245902,0.064562924,341,0.0045078443,-0.035668615,-0.0009489729,-11.6018455553,1.0679631493,166.630824954
-87.6471675,41.86967766,0,4.9155517,14-54-06-325,1500580446326,0.17298703,-0.12539943,-0.0587508,341,-0.041298527,-0.046321258,0.008638408,-11.8759470231,1.1102141659,166.5603920433
-87.6471675,41.86967766,0,4.9155517,14-54-06-425,1500580446426,0.1841604,-0.18213297,0.04650052,341,0.020486811,-0.053778112,-0.01000372,-12.2510080784,1.146769445,166.7039079781
-87.6471675,41.86967766,0,4.9155517,14-54-06-526,1500580446526,0.25375152,-0.14759181,0.042098165,341,0.012497327,-0.03460335,-0.01000372,-12.5815269087,1.1743567925,166.5815792901
-87.6471675,41.86967766,0,4.9155517,14-54-06-625,1500580446626,0.3092696,-0.16635151,0.0748261,341,0.006105741,-0.06815918,0.0001162916,-12.8986705211,1.1988382182,166.5355438151
-87.6471675,41.86967766,0,4.9155517,14-54-06-726,1500580446727,0.22059686,-0.13426635,0.04720447,341,-0.0226564,-0.10704134,-0.0073405597,-13.2788431192,1.2107358741,166.4609035078
-87.6471675,41.86967766,0,4.9155517,14-54-06-825,1500580446826,0.19948289,-0.18593347,0.061805263,341,-0.0024163749,-0.11503082,-0.024384791,-13.8006917699,1.3277268761,166.4975406425
-87.6471675,41.86967766,0,4.9155517,14-54-06-927,1500580446928,0.19388779,-0.16551086,0.033167955,341,-0.0002858459,-0.094790794,0.009703672,-14.3846601374,1.4453805131,166.5886280453
-87.6471675,41.86967766,0,4.9155517,14-54-07-026,1500580447029,0.22842841,-0.23185599,0.07259426,341,0.001844683,-0.06656128,0.021954214,-14.8713794176,1.4014086089,166.6112086507
-87.6471675,41.86967766,0,4.9155517,14-54-07-126,1500580447127,0.26118547,-0.21732391,0.079523504,342,0.010366798,-0.08467078,-0.016927939,-15.2463670483,1.3101627244,166.5733147612
-87.6471675,41.86967766,0,4.9155517,14-54-07-227,1500580447232,0.27843246,-0.19537124,0.04067703,341,0.009301534,-0.05803917,-0.012666881,-15.6272474247,1.3616061084,166.5103130963
-87.64716767,41.8696775,0,4.9326835,14-54-07-326,1500580447328,0.2709705,-0.19371794,0.047696818,341,-0.01306902,-0.061767593,-0.0062752953,-15.9795929784,1.4120118373,166.4675287913
-87.64716767,41.8696775,0,4.9326835,14-54-07-426,1500580447428,0.18878753,-0.2283965,0.045868967,341,-0.019460605,-0.06549602,0.0049099815,-16.3166593988,1.4398930964,166.5149986061
-87.64716767,41.8696775,0,4.9326835,14-54-07-526,1500580447527,0.19680221,-0.0994113,0.033829693,342,-0.0018837426,-0.04898442,0.017693156,-16.7219098902,1.4368392548,166.5035921901
-87.64716767,41.8696775,0,4.9326835,14-54-07-626,1500580447627,0.314304,-0.27659804,-0.007872495,342,-0.030645883,-0.071887605,-0.005210031,-17.1202823811,1.3203393861,166.5334947583
-87.64716767,41.8696775,0,4.9326835,14-54-07-727,1500580447728,0.37962624,-0.17859398,0.26238394,342,0.027943663,-0.12621608,-0.04036376,-17.4251154313,1.5021979753,166.6057444994
-87.64716767,41.8696775,0,4.9326835,14-54-07-826,1500580447827,0.27007252,-0.1388214,0.14221945,341,-0.008807962,-0.17308772,-0.011601618,-18.0811619313,1.6625224721,166.5644491757
-87.64716767,41.8696775,0,4.9326835,14-54-07-927,1500580447928,0.19690414,-0.17327236,0.07821041,341,-0.0034816393,-0.14219506,0.015029995,-18.974941703,1.7450411891,166.598149329
-87.64716767,41.8696775,0,4.9326835,14-54-08-028,1500580448029,0.19200154,-0.27285156,-0.014274571,342,-0.0040142713,-0.0436581,0.0070405104,-19.698055538,1.6893359805,166.7197266962
-87.64716767,41.8696775,0,4.9326835,14-54-08-129,1500580448129,0.25975057,-0.18997736,-0.061160736,342,0.012497327,-0.010102267,0.0017141883,-19.9083280342,1.6379373129,166.6239947648
-87.64716767,41.8696775,0,4.9326835,14-54-08-229,1500580448230,0.29423413,-0.21678609,0.11113901,342,-0.016264811,-0.072952874,-0.0020142372,-20.0877605188,1.6134082893,166.5983542347
-87.64716781,41.86967745,0,4.9377513,14-54-08-329,1500580448330,0.16371712,-0.16799097,0.009740038,342,0.005573109,-0.095856056,0.0022468206,-20.4063820134,1.6278309808,166.568615591
-87.64716781,41.86967745,0,4.9377513,14-54-08-431,1500580448432,0.40324724,-0.23991504,0.2616669,342,0.023682605,-0.13260767,-0.005210031,-21.0169838497,1.6179829152,166.7383867731
-87.64716781,41.86967745,0,4.9377513,14-54-08-529,1500580448530,0.24305922,-0.15213826,-0.120016344,342,0.0007794186,-0.07668129,-0.011068985,-21.7015617574,1.5977479462,166.6170416323
-87.64716781,41.86967745,0,4.9377513,14-54-08-630,1500580448630,0.2780572,-0.2112449,0.1345443,342,-0.020525869,-0.091595,-0.017460572,-22.1799413767,1.7074924375,166.7409959053
-87.64716781,41.86967745,0,4.9377513,14-54-08-729,1500580448730,0.3127162,-0.092691675,0.098366514,342,-0.046092216,-0.2849405,-0.0030795017,-23.0521309205,1.8648397189,166.8341323648
-87.64716781,41.86967745,0,4.9377513,14-54-08-830,1500580448831,0.26584533,-0.19813813,-0.02591066,342,0.017823651,-0.15870665,0.008638408,-24.5120053084,1.922639341,166.9997507918
-87.64716781,41.86967745,0,4.9377513,14-54-08-930,1500580448930,0.22471838,-0.18437028,-0.04256571,343,-0.03277641,-0.08413815,0.03313949,-25.2573326261,1.766910601,166.9834949416
-87.64716781,41.86967745,0,4.9377513,14-54-09-037,1500580449037,0.3840522,-0.20910531,0.10700532,343,0.020486811,-0.08733394,-0.020123733,-25.5313495703,1.7076362984,167.0501712483
-87.64716781,41.86967745,0,4.9377513,14-54-09-129,1500580449130,0.2228282,-0.19355372,-0.037300102,343,0.003975212,-0.08040972,0.003312085,-25.9865031314,1.7411015573,167.0014446787
-87.64716781,41.86967745,0,4.9377513,14-54-09-229,1500580449230,0.3232674,-0.10778313,0.030141203,343,-0.045559585,-0.19013195,-0.0078731915,-26.597243279,1.7792462428,166.8459759129
-87.64716792,41.86967743,0,4.9396124,14-54-09-330,1500580449334,0.24698976,-0.23158608,0.004789516,343,0.023682605,-0.071887605,-0.027580583,-27.5774095759,1.9409585487,167.0504581162
-87.64716792,41.86967743,0,4.9396124,14-54-09-431,1500580449432,0.29692474,-0.09592054,0.011947057,343,-0.015199549,-0.054843374,-0.005742663,-27.9875658506,2.0462640574,166.9285255792
-87.64716792,41.86967743,0,4.9396124,14-54-09-532,1500580449535,0.31616682,-0.2382326,-0.04528262,343,-0.020525869,-0.028744396,0.016095258,-28.5142724734,1.9913950134,166.9477867126
-87.64716792,41.86967743,0,4.9396124,14-54-09-631,1500580449632,0.35636836,-0.23954745,0.07828824,343,-0.0024163749,-0.060169697,0.0017141883,-28.7992023523,1.9514874987,166.9949696594
-87.64716792,41.86967743,0,4.9396124,14-54-09-732,1500580449733,0.2701201,-0.18388666,0.023979569,343,0.0029099474,-0.0271465,-0.0046773986,-29.0332046333,1.967742922,166.9674713178
-87.64716792,41.86967743,0,4.9396124,14-54-09-834,1500580449835,0.27100542,-0.26543763,0.036159243,343,0.0023773152,-0.014363325,0.008105775,-29.1831409459,2.0037506121,166.9840550171
-87.64716792,41.86967743,0,4.9396124,14-54-09-933,1500580449936,0.23985162,-0.18733428,0.001804518,343,-0.012536387,0.034106206,-0.015330043,-29.2768887074,1.9908490251,166.921804673
-87.64716792,41.86967743,0,4.9396124,14-54-10-033,1500580450034,0.25796804,-0.17034313,0.122565836,343,-0.0093405945,0.022920929,0.005975246,-29.1920475126,2.0352185743,166.9503821845
-87.64716792,41.86967743,0,4.9396124,14-54-10-133,1500580450134,0.29046097,-0.19803977,0.03232489,343,0.013562592,0.04955254,-0.011068985,-29.1447006413,2.044534312,166.9986169804
-87.64716792,41.86967743,0,4.9396124,14-54-10-236,1500580450237,0.38616875,-0.20032318,0.072711654,343,0.01302996,0.0026809059,0.001181556,-28.9437359853,2.0320220458,166.946570939
-87.64716805,41.86967741,0,4.9414306,14-54-10-334,1500580450336,0.17810531,-0.1680791,-0.09284798,343,0.0077036372,0.036769368,-0.0009489729,-28.9661492511,1.9932203814,166.8136144766
-87.64716805,41.86967741,0,4.9414306,14-54-10-434,1500580450435,0.21319485,-0.17010967,0.08742657,343,-0.027450088,0.11133788,0.03047633,-28.7776804262,1.9721215002,166.8536393851
-87.64716805,41.86967741,0,4.9414306,14-54-10-535,1500580450535,0.36987743,-0.27531204,0.1911381,342,0.021019444,0.14436108,-0.07977854,-27.8276181882,2.110364529,166.9470900333
-87.64716805,41.86967741,0,4.9414306,14-54-10-636,1500580450637,0.14914365,-0.15489481,-0.103015415,342,-0.045026954,0.014931447,0.05764057,-27.4575943974,2.333748854,166.9008769734
-87.64716805,41.86967741,0,4.9414306,14-54-10-736,1500580450736,0.23716344,-0.22784632,0.021033373,342,-0.01573218,0.086304165,0.043792132,-27.3844328261,2.1590012389,167.1548780483
-87.64716805,41.86967741,0,4.9414306,14-54-10-835,1500580450836,0.37090176,-0.24657506,-0.06631927,343,0.013562592,0.100152604,-0.037700597,-26.8819272712,1.9957087047,167.2486565456
-87.64716805,41.86967741,0,4.9414306,14-54-10-936,1500580450936,0.33371285,-0.17981647,0.032162894,342,-0.04662485,0.06393361,-0.011068985,-26.3576231675,2.1455282638,167.2684640942
-87.64716805,41.86967741,0,4.9414306,14-54-11-036,1500580451037,0.19169629,-0.2440403,-0.022915566,342,0.0013120507,0.07245573,0.00917104,-25.9387532789,2.223263714,167.3655893842
-87.64716805,41.86967741,0,4.9414306,14-54-11-136,1500580451137,0.25413617,-0.16676404,-0.06697557,342,-0.027450088,0.088434696,-0.011601618,-25.5458568921,2.2333269305,167.1980721646
-87.64716805,41.86967741,0,4.9414306,14-54-11-240,1500580451240,0.26994482,-0.19401787,0.05117581,342,-0.002949007,0.08257574,0.0054426137,-25.1379357968,2.3293636591,167.3069043988
-87.64716822,41.86967734,0,4.9487114,14-54-11-337,1500580451338,0.26578054,-0.20189515,-0.03189075,342,-0.0045469035,0.099087335,0.006507878,-24.4869555896,2.1938608168,167.265281226
-87.64716822,41.86967734,0,4.9487114,14-54-11-438,1500580451439,0.35516837,-0.17895144,0.068812676,342,0.009834166,0.09642418,0.003312085,-23.8453139586,2.1487653466,167.1826905786
-87.64716822,41.86967734,0,4.9487114,14-54-11-539,1500580451540,0.2886828,-0.18671973,-0.03535219,342,-0.014666916,0.084173635,-0.009471089,-23.4001973606,2.1007083491,167.0903327606
-87.64716822,41.86967734,0,4.9487114,14-54-11-639,1500580451640,0.11216929,-0.25965676,-0.18696694,342,-0.032243777,0.20827696,0.022486845,-22.9174600806,2.1148284845,167.0979689121
-87.64716822,41.86967734,0,4.9487114,14-54-11-740,1500580451740,0.37281057,-0.19139373,0.024156673,341,0.003975212,0.17631902,-0.023319526,-21.8009034438,2.094341759,167.1051406107
-87.64716822,41.86967734,0,4.9487114,14-54-11-840,1500580451840,0.34412125,-0.16666713,0.17173623,341,-0.005079536,0.06073782,0.017693156,-21.030768879,2.1739535902,167.0635174379
-87.64716822,41.86967734,0,4.9487114,14-54-11-941,1500580451941,0.21314536,-0.19209258,0.020332964,341,-0.01786271,0.095358916,0.0049099815,-20.67913025,2.0961122721,167.1162464983
-87.64716822,41.86967734,0,4.9487114,14-54-12-043,1500580452043,0.23135974,-0.18596795,-0.11695335,341,-0.081245944,0.33610868,0.042194236,-19.8448465485,2.072268722,167.2606640181
-87.64716822,41.86967734,0,4.9487114,14-54-12-143,1500580452144,0.3466984,-0.23948288,0.08869446,341,-0.033309042,0.17578639,-0.0025468695,-18.3802883584,2.0557928116,167.6341524223
-87.64716842,41.86967725,0,4.9581795,14-54-12-245,1500580452246,0.34345317,-0.22319426,0.14987129,341,-0.019460605,0.0538136,-0.0030795017,-17.5993296514,2.0935084759,167.7584618652
-87.64716842,41.86967725,0,4.9581795,14-54-12-343,1500580452344,0.20476182,-0.15557362,-0.014328757,340,-0.010405858,0.18537377,-0.039831128,-17.0918107375,2.1868417302,167.7892660184
-87.64716842,41.86967725,0,4.9581795,14-54-12-445,1500580452446,0.25119,-0.21231934,0.07639733,340,0.005573109,0.16566637,0.0049099815,-16.1698154543,2.2912072342,167.7937466225
-87.64716842,41.86967725,0,4.9581795,14-54-12-546,1500580452546,0.26889193,-0.19240145,0.044571802,339,0.025813134,0.19229798,-0.03823323,-15.1706953825,2.3163549235,167.6752428404
-87.64716842,41.86967725,0,4.9581795,14-54-12-648,1500580452648,0.31971925,-0.10326328,0.0922262,337,-0.041831158,0.18058008,-0.0073405597,-14.1430865917,2.5383226246,167.6267894784
-87.64716842,41.86967725,0,4.9581795,14-54-12-747,1500580452748,0.13552448,-0.1951371,-0.0016541006,336,0.018356282,0.16886216,0.0049099815,-13.3595375354,2.5985215641,167.5984578537
-87.64716842,41.86967725,0,4.9581795,14-54-12-847,1500580452847,0.039227482,-0.18036032,-0.01239711,336,-0.034374308,0.22106013,0.0762827,-12.206943113,2.4572647143,167.4528928621
-87.64716842,41.86967725,0,4.9581795,14-54-12-947,1500580452948,0.3283955,-0.2123269,0.20255297,336,0.06416265,0.11080525,-0.013199514,-11.1005335759,2.2112348971,167.4391778423
-87.64716842,41.86967725,0,4.9581795,14-54-13-048,1500580453048,0.25493506,-0.21122114,0.09731777,335,-0.014134284,0.07405362,-0.008938456,-10.5940289452,2.1983708761,167.2801983592
-87.64716842,41.86967725,0,4.9581795,14-54-13-147,1500580453150,0.35188746,-0.15368843,0.14721306,335,0.03966157,0.077249415,-0.02651532,-10.0680762046,2.2069702977,167.1840019749
-87.64716858,41.86967711,0,4.9733458,14-54-13-248,1500580453249,0.20311467,-0.17441972,0.152555,333,0.012497327,0.18697166,-0.0078731915,-9.2557481462,2.3033171596,166.9610372796
-87.64716858,41.86967711,0,4.9733458,14-54-13-347,1500580453349,0.18680416,-0.1321651,0.11283542,331,0.021019444,0.101217866,0.0027794528,-8.3801076493,2.3200498424,166.8223844395
-87.64716858,41.86967711,0,4.9733458,14-54-13-451,1500580453452,0.16203693,-0.2004676,0.0525406,330,0.019421548,0.24982227,0.02355211,-7.7295688431,2.2661222973,166.6887722789
-87.64716858,41.86967711,0,4.9733458,14-54-13-548,1500580453548,0.25214705,-0.1347033,0.028038178,329,-0.0045469035,0.2572791,0.027280536,-6.3556455557,2.0353867677,166.605730839
-87.64716858,41.86967711,0,4.9733458,14-54-13-649,1500580453650,0.30968454,-0.116988935,0.18551418,325,-0.017330077,0.14010003,0.010236304,-4.9362647981,1.9435132529,166.5160777759
-87.64716858,41.86967711,0,4.9733458,14-54-13-749,1500580453750,0.25280806,-0.16730553,0.28771114,321,0.018356282,0.10281576,-0.0025468695,-4.0221656404,1.9276603838,166.5484528726
-87.64716858,41.86967711,0,4.9733458,14-54-13-850,1500580453851,0.22372594,-0.1531135,0.115161054,317,0.021552077,0.123055786,0.005975246,-3.4533235807,1.930028325,166.4235970146
-87.64716858,41.86967711,0,4.9733458,14-54-13-951,1500580453951,0.26194802,-0.15198818,0.046350513,312,-0.0002858459,0.10281576,0.0054426137,-2.8081372949,1.8831508157,166.2808324006
-87.64716858,41.86967711,0,4.9733458,14-54-14-051,1500580454052,0.26404354,-0.18464789,0.19451158,307,0.05297738,0.079379946,-0.01479741,-2.2620325081,1.8551807642,166.2112191125
-87.64716858,41.86967711,0,4.9733458,14-54-14-152,1500580454152,0.1590828,-0.147685,-0.019830415,303,0.04392263,0.06659677,-0.0009489729,-2.1040549283,1.9426197787,165.8952409012
-87.64716873,41.86967696,0,4.9896803,14-54-14-252,1500580454252,0.23144285,-0.25729656,0.23706003,296,0.0050404766,0.10973998,-0.0078731915,-1.6155299168,1.9387301994,165.8519648226
-87.64716873,41.86967696,0,4.9896803,14-54-14-353,1500580454353,0.1274058,-0.18461148,0.26999104,282,0.019421548,0.010137757,0.026747903,-0.9705343427,1.9793442118,165.7508507021
-87.64716873,41.86967696,0,4.9896803,14-54-14-454,1500580454460,0.2966781,-0.17855024,0.06636036,279,-0.016264811,0.033573575,0.010236304,-0.8202620168,1.8983319784,165.6516490346
-87.64716873,41.86967696,0,4.9896803,14-54-14-554,1500580454555,0.17096408,-0.18292552,0.15271415,273,0.016758386,0.05168307,-0.005742663,-0.5830555233,1.8714489941,165.6538893366
-87.64716873,41.86967696,0,4.9896803,14-54-14-654,1500580454655,0.13860796,-0.13839547,0.09876563,264,0.0007794186,0.043693587,0.0118342005,-0.2655245645,1.8809038969,165.5499201971
-87.64716873,41.86967696,0,4.9896803,14-54-14-756,1500580454757,0.2712124,-0.17670599,0.03501984,254,-0.014666916,0.058607288,-0.008405823,0.0492285951,1.8507163818,165.4658815495
-87.64716873,41.86967696,0,4.9896803,14-54-14-856,1500580454857,0.20107633,-0.17510334,0.20574656,243,0.026878398,0.11985999,-0.021188997,0.3850514075,1.9320950976,165.4158845648
-87.64716873,41.86967696,0,4.9896803,14-54-14-957,1500580454957,0.19408593,-0.076886944,0.20947413,227,0.055640537,0.12145789,-0.028113216,1.1510770532,2.1501155896,165.1313798651
-87.64716873,41.86967696,0,4.9896803,14-54-15-055,1500580455056,0.28930756,-0.19877021,0.26440838,219,0.026878398,0.051150437,0.0006489238,1.6589705602,2.247056678,164.9312963036
-87.64716873,41.86967696,0,4.9896803,14-54-15-156,1500580455157,0.1896296,-0.179776,0.14853601,215,0.025813134,0.06659677,-0.008938456,1.9185011001,2.263924257,164.779269953
-87.64716888,41.86967676,0,5.0116,14-54-15-257,1500580455258,0.22027984,-0.1701749,0.25968742,209,-0.0061448,0.02558409,-0.0009489729,2.3384384192,2.3186663022,164.6714895679
-87.64716888,41.86967676,0,5.0116,14-54-15-356,1500580455357,0.15996227,-0.13241962,-0.018342275,207,-0.01306902,0.059139922,-0.008405823,2.5512150335,2.3039007139,164.7030450419
-87.64716888,41.86967676,0,5.0116,14-54-15-457,1500580455457,0.24757175,-0.18085995,0.347973,203,-0.0018837426,0.040497795,0.019823683,2.8798880053,2.3197121749,164.7121701746
-87.64716888,41.86967676,0,5.0116,14-54-15-557,1500580455557,0.17204878,-0.14795738,0.12521796,199,-0.010938491,0.0671294,0.028878432,3.1504719257,2.2169782324,164.7394362898
-87.64716888,41.86967676,0,5.0116,14-54-15-658,1500580455658,0.29537,-0.14919119,0.20712757,193,0.01302996,0.091097854,-0.0009489729,3.5832807362,2.0467852862,164.7830265571
-87.64716888,41.86967676,0,5.0116,14-54-15-757,1500580455758,0.11220043,-0.16444132,0.029858747,190,-0.016797444,0.18217798,0.011301569,4.1744515382,1.9878108716,164.8116313893
-87.64716888,41.86967676,0,5.0116,14-54-15-858,1500580455858,0.18573697,-0.17053413,0.12625477,187,-0.029047985,0.05434623,0.0022468206,4.7980422598,1.9493408983,164.8403864857
-87.64716888,41.86967676,0,5.0116,14-54-15-957,1500580455958,0.16798696,-0.15144292,0.22510636,184,-0.035972204,0.09056522,0.016095258,5.4498361133,1.8674236648,164.947920984
-87.64716888,41.86967676,0,5.0116,14-54-16-058,1500580456058,0.28973892,-0.14675727,0.27068916,182,-0.007742697,0.043693587,0.027813168,5.8550511731,1.7260183652,165.1190582039
-87.64716888,41.86967676,0,5.0116,14-54-16-158,1500580456159,0.27663574,-0.15234807,0.18469018,180,0.0066383732,0.018659871,-0.005742663,6.1141117105,1.6086785967,165.1423901301
-87.647169,41.86967655,0,5.0347123,14-54-16-270,1500580456271,0.11441286,-0.17941134,0.113652036,180,-0.005612168,0.054878864,0.013432098,6.2313728251,1.6142448807,165.1282516385
-87.647169,41.86967655,0,5.0347123,14-54-16-359,1500580456360,0.12095088,-0.18556634,0.09524707,179,-0.013601652,0.07192309,0.001181556,6.555390596,1.5636041507,165.1559412254
-87.647169,41.86967655,0,5.0347123,14-54-16-461,1500580456462,0.07361985,-0.16069186,0.08559589,178,-0.0066774325,0.08790206,-0.0014816051,6.9419502747,1.6245642293,165.1554084706
-87.647169,41.86967655,0,5.0347123,14-54-16-561,1500580456561,0.34638816,-0.1488995,0.11791087,177,-0.014134284,0.106011555,0.0070405104,7.6332110956,1.6282487962,165.1022559385
-87.647169,41.86967655,0,5.0347123,14-54-16-661,1500580456662,0.2481055,-0.2125384,0.19723034,176,0.019421548,0.051150437,0.010236304,8.0456554838,1.5657469091,165.1327732237
-87.647169,41.86967655,0,5.0347123,14-54-16-761,1500580456762,0.13516079,-0.15395065,0.2220868,176,0.015160489,-0.0005148875,-0.016927939,8.2705958112,1.5770942012,165.0166326871
-87.647169,41.86967655,0,5.0347123,14-54-16-861,1500580456862,0.16494977,-0.17054734,0.23165514,176,0.001844683,0.019725136,0.0017141883,8.3382582265,1.6312233436,164.9191249065
-87.647169,41.86967655,0,5.0347123,14-54-16-962,1500580456962,0.19160512,-0.18559912,0.19697249,176,-0.0018837426,0.019192504,-0.003612134,8.5140041165,1.6380949408,164.893074565
-87.647169,41.86967655,0,5.0347123,14-54-17-062,1500580457063,0.14293545,-0.177248,0.2389775,176,0.023682605,0.045824114,-0.0030795017,8.613484968,1.6969511078,164.8715594691
-87.647169,41.86967655,0,5.0347123,14-54-17-163,1500580457163,0.2104302,-0.16097048,0.1914411,176,-0.005612168,0.023453562,-0.011068985,8.8186604355,1.7323477094,164.7670165937
-87.64716909,41.86967641,0,5.0501175,14-54-17-263,1500580457264,0.15441805,-0.19432564,0.2988535,176,0.026878398,-0.019157017,-0.0068079275,8.9262529904,1.7767900428,164.8008396904
-87.64716909,41.86967641,0,5.0501175,14-54-17-363,1500580457363,0.18347879,-0.12673858,0.25153637,176,0.008768902,-0.0063738422,-0.017993204,8.8979273422,1.8352223111,164.6844805877
-87.64716909,41.86967641,0,5.0501175,14-54-17-463,1500580457463,0.20060728,-0.13019657,0.28941154,177,0.0140952235,-0.015428591,-0.009471089,8.9288040661,1.8990939714,164.6554386234
-87.64716909,41.86967641,0,5.0501175,14-54-17-562,1500580457563,0.16593233,-0.1480444,0.25854322,177,0.006105741,-0.03194019,-0.008405823,8.8462808668,1.9539884152,164.617981866
-87.64716909,41.86967641,0,5.0501175,14-54-17-663,1500580457663,0.1549145,-0.22658491,0.12844661,177,-0.002949007,-0.0138306925,0.0038447173,8.6623182592,1.949921251,164.6221209606
-87.64716909,41.86967641,0,5.0501175,14-54-17-763,1500580457763,0.18437453,-0.17774034,0.26796287,177,0.0050404766,-0.05590864,0.005975246,8.5203100886,1.943716451,164.5876558261
-87.64716909,41.86967641,0,5.0501175,14-54-17-863,1500580457864,0.20078893,-0.20629565,0.14510173,178,0.01302996,-0.110769756,-0.0014816051,8.0623348057,1.9058456134,164.6100315258
-87.64716909,41.86967641,0,5.0501175,14-54-17-963,1500580457964,0.17984168,-0.12858339,0.17629083,180,0.001844683,-0.15338033,-0.008938456,7.3024156426,1.9516507829,164.546456125
-87.64716909,41.86967641,0,5.0501175,14-54-18-064,1500580458065,0.2390615,-0.1657979,0.102229364,181,-0.03490694,-0.047386523,0.0043773493,6.6818716122,1.933513429,164.6051547707
-87.64716909,41.86967641,0,5.0501175,14-54-18-166,1500580458168,0.21144074,-0.16552989,0.16827403,181,-0.016797444,-0.06975708,0.018225787,6.4328561485,1.8849360564,164.7146973446
-87.64716917,41.86967636,0,5.0555534,14-54-18-265,1500580458265,0.17182188,-0.15486914,0.17829007,182,0.014627856,-0.062300228,-0.008405823,6.045952399,1.8384141439,164.7615114612
-87.64716917,41.86967636,0,5.0555534,14-54-18-368,1500580458369,0.15196069,-0.12821974,0.22589394,183,-0.021591134,-0.09851922,0.010768937,5.5810777713,1.8796900443,164.705107759
-87.64716917,41.86967636,0,5.0555534,14-54-18-465,1500580458465,0.22598255,-0.15298703,0.097526446,185,0.034867883,-0.066028655,-0.021188997,5.0294012576,1.865976732,164.7241639868
-87.64716917,41.86967636,0,5.0555534,14-54-18-564,1500580458565,0.2135545,-0.14036852,0.16447946,188,-0.017330077,-0.13420556,-0.008938456,4.5392549299,1.95884532,164.634989037
-87.64716917,41.86967636,0,5.0555534,14-54-18-664,1500580458665,0.14762048,-0.101333894,0.13078412,194,0.0066383732,-0.12834662,0.001181556,3.6680591787,2.030022081,164.6065208086
-87.64716917,41.86967636,0,5.0555534,14-54-18-765,1500580458766,0.19142279,-0.13545486,0.14486071,198,-0.021058502,-0.052712847,0.02355211,3.0485290044,2.0082459438,164.6246754514
-87.64716917,41.86967636,0,5.0555534,14-54-18-864,1500580458865,0.2848512,-0.14436758,0.3186053,199,0.038063675,-0.047919158,-0.0195911,2.8199368736,1.9376409977,164.704998476
-87.64716917,41.86967636,0,5.0555534,14-54-18-965,1500580458965,0.23637636,-0.15429753,0.32837346,202,-0.0061448,-0.07774656,0.019823683,2.583362813,1.9931832423,164.6341011124
-87.64716917,41.86967636,0,5.0555534,14-54-19-065,1500580459066,0.24976781,-0.16295677,0.18601507,209,0.006105741,-0.1959909,0.025150007,1.9050072076,1.8810778533,164.6280768856
-87.64716917,41.86967636,0,5.0555534,14-54-19-165,1500580459166,0.11969943,-0.16975032,0.15579091,229,-0.047690112,-0.17734878,0.04112897,0.832561053,1.7511135474,164.692649494
-87.64716929,41.86967631,0,5.0609474,14-54-19-266,1500580459266,0.15401255,-0.22552457,0.04023561,258,-0.008807962,-0.06549602,0.016095258,-0.0831302591,1.529893005,164.9306132847
-87.64716929,41.86967631,0,5.0609474,14-54-19-366,1500580459366,0.27080888,-0.19585617,0.20839232,276,-0.022123767,-0.1395319,-0.0078731915,-0.5723315394,1.4596422682,165.0178348004
-87.64716929,41.86967631,0,5.0609474,14-54-19-465,1500580459466,0.3056841,-0.14842471,0.17476301,292,0.013562592,-0.045788627,-0.018525837,-1.1626770623,1.5322858123,165.1221864305
-87.64716929,41.86967631,0,5.0609474,14-54-19-565,1500580459566,0.25409168,-0.14990862,0.15343486,297,-0.014666916,-0.06549602,-0.0014816051,-1.4622460644,1.6212732521,165.0562341239
-87.64716929,41.86967631,0,5.0609474,14-54-19-666,1500580459670,0.20182446,-0.17574917,0.15716378,303,-0.0061448,-0.07774656,-0.003612134,-1.7954964368,1.6278906382,165.1439474132
-87.64716929,41.86967631,0,5.0609474,14-54-19-766,1500580459766,0.21956423,-0.08363315,0.042579886,308,-0.019993238,-0.109704494,0.013432098,-2.16588052,1.6391337699,165.1500399419
-87.64716929,41.86967631,0,5.0609474,14-54-19-865,1500580459866,0.2354363,-0.18315992,0.28479257,316,0.03220472,-0.137934,-0.015862675,-2.8778876136,1.6022403964,165.3122569347
-87.64716929,41.86967631,0,5.0609474,14-54-19-965,1500580459966,0.24285696,-0.16308108,0.10761484,322,0.005573109,-0.11822661,0.022486845,-3.6679464805,1.6052831389,165.2017308136
-87.64716929,41.86967631,0,5.0609474,14-54-20-066,1500580460066,0.17552835,-0.12856759,-0.024568506,326,-0.0018837426,-0.113965556,-0.0009489729,-4.3519506523,1.5331772587,165.1995451531
-87.64716929,41.86967631,0,5.0609474,14-54-20-165,1500580460166,0.18193579,-0.1707549,0.11280198,329,-0.01786271,-0.111835025,0.029943697,-4.9649285407,1.4922416939,165.2581481761
-87.64716944,41.86967617,0,5.0763254,14-54-20-265,1500580460266,0.23120801,-0.15615317,0.123050004,332,-0.011471123,-0.14698875,0.017160524,-5.5845948918,1.371407003,165.3681142218
-87.64716944,41.86967617,0,5.0763254,14-54-20-366,1500580460366,0.276352,-0.15329021,0.108092405,334,-0.018395342,-0.23114464,-0.0020142372,-6.4657400943,1.3124665259,165.4428774724
-87.64716944,41.86967617,0,5.0763254,14-54-20-466,1500580460467,0.13012049,-0.15692317,-0.004504922,336,0.003975212,-0.20664355,0.016095258,-8.0418024033,1.3843504249,165.4742143803
-87.64716944,41.86967617,0,5.0763254,14-54-20-566,1500580460567,0.309018,-0.15994263,0.21941993,337,-0.010938491,-0.14219506,0.017160524,-9.0440814376,1.2926060433,165.5304951391
-87.64716944,41.86967617,0,5.0763254,14-54-20-667,1500580460670,0.2590632,-0.087717794,0.07960992,338,0.001844683,-0.09052973,-0.012666881,-9.7092411174,1.2668923021,165.4565515111
-87.64716944,41.86967617,0,5.0763254,14-54-20-767,1500580460768,0.30193084,-0.12502968,0.2603323,338,-0.0013511104,-0.104910806,-0.012666881,-10.2350828675,1.3591787233,165.5075320431
-87.64716944,41.86967617,0,5.0763254,14-54-20-869,1500580460870,0.3423,-0.14153185,0.2140658,338,-0.0040142713,-0.2471236,-0.0137321465,-11.0090150174,1.4124068143,165.5254954406
-87.64716944,41.86967617,0,5.0763254,14-54-20-967,1500580460969,0.26500276,-0.1533112,0.13075365,339,-0.03277641,-0.31583318,0.0001162916,-12.5335021411,1.4310264436,165.6391771092
-87.64716944,41.86967617,0,5.0763254,14-54-21-066,1500580461067,0.1893684,-0.15387452,0.047870435,340,0.005573109,-0.137934,0.0022468206,-14.042433509,1.4377492708,165.8112432347
-87.64716944,41.86967617,0,5.0763254,14-54-21-166,1500580461167,0.23520005,-0.23138714,0.06392529,340,0.030606825,-0.11343292,-0.0025468695,-14.7606159474,1.4178505818,165.8318294249
-87.64716956,41.86967604,0,5.09065,14-54-21-267,1500580461272,0.3436538,-0.15153803,0.20387311,340,-0.011471123,-0.1347382,-0.0014816051,-15.3574600752,1.4216519023,165.6915646601
-87.64716956,41.86967604,0,5.09065,14-54-21-368,1500580461369,0.2886093,-0.19858794,0.09524145,340,0.0013120507,-0.1065087,-0.0062752953,-16.103858025,1.468584053,165.778431006
-87.64716956,41.86967604,0,5.09065,14-54-21-473,1500580461474,0.3129567,-0.19615221,0.14460821,341,-0.010405858,-0.124618195,-0.003612134,-16.802436113,1.5242678106,165.8292612738
-87.64716956,41.86967604,0,5.09065,14-54-21-568,1500580461578,0.26155528,-0.20134178,0.097224444,341,-0.012003755,-0.11343292,-0.01479741,-17.4620223585,1.5978370588,165.903792298
-87.64716956,41.86967604,0,5.09065,14-54-21-668,1500580461671,0.22404745,-0.16989514,0.06298173,340,-0.034374308,-0.09798659,-0.0068079275,-18.1514770212,1.7273149272,165.9664797742
-87.64716956,41.86967604,0,5.09065,14-54-21-768,1500580461770,0.31358624,-0.19786252,0.21786593,340,0.021552077,-0.056441274,-0.01479741,-18.6140703658,1.799195838,166.0585643846
-87.64716956,41.86967604,0,5.09065,14-54-21-870,1500580461871,0.32201988,-0.14822885,0.19476488,340,-0.005612168,-0.15338033,0.008638408,-19.012886819,1.8528670376,165.9789790204
-87.64716956,41.86967604,0,5.09065,14-54-21-970,1500580461971,0.26361004,-0.21136414,-0.020748788,341,-0.026917458,-0.10917186,0.0049099815,-19.8884675517,1.8447890583,166.0858168394
-87.64716956,41.86967604,0,5.09065,14-54-22-070,1500580462071,0.28245267,-0.18555899,0.10937818,341,-0.008275329,-0.072952874,0.016627891,-20.5270595032,1.8856741437,166.2150713392
-87.64716956,41.86967604,0,5.09065,14-54-22-170,1500580462173,0.3627199,-0.18284188,0.0580089,341,0.010366798,-0.09266026,-0.01479741,-21.0557981073,1.8360075694,166.267417909
-87.64716966,41.86967587,0,5.1094513,14-54-22-272,1500580462273,0.36591575,-0.15776742,0.062882,341,-0.034374308,-0.093725525,0.001181556,-21.5781504844,1.9160219549,166.2488671152
-87.64716966,41.86967587,0,5.1094513,14-54-22-372,1500580462373,0.15589592,-0.18610086,-0.04996259,341,0.0007794186,-0.036201246,-0.014264778,-22.0818820583,1.9888582384,166.4166575424
-87.64716966,41.86967587,0,5.1094513,14-54-22-472,1500580462472,0.4082852,-0.23298053,0.25944835,341,-0.0013511104,-0.05164758,-0.0009489729,-22.2329521824,2.063808679,166.467009697
-87.64716966,41.86967587,0,5.1094513,14-54-22-572,1500580462573,0.27374092,-0.17622235,-0.06527722,341,-0.0013511104,-0.07028971,-0.0020142372,-22.5928946139,2.0755079392,166.4642776213
-87.64716966,41.86967587,0,5.1094513,14-54-22-673,1500580462674,0.26908195,-0.16126099,0.227958,341,0.0034425796,-0.06815918,-0.0195911,-22.9601470554,2.119767565,166.5180448704
-87.64716966,41.86967587,0,5.1094513,14-54-22-772,1500580462773,0.2594616,-0.13353567,0.035684973,341,-0.018395342,-0.014895958,-0.01000372,-23.2424438964,2.2299538843,166.5550781561
-87.64716966,41.86967587,0,5.1094513,14-54-22-873,1500580462874,0.4888615,-0.17122857,0.26082465,341,0.0023773152,-0.056441274,0.0001162916,-23.324641808,2.3024095982,166.6161263869
-87.64716966,41.86967587,0,5.1094513,14-54-22-974,1500580462975,0.23391572,-0.18989839,-0.07154592,341,0.016758386,-0.007439106,-0.024384791,-23.6832369847,2.3066244653,166.6172055568
-87.64716966,41.86967587,0,5.1094513,14-54-23-075,1500580463076,0.36058187,-0.1854085,0.2143249,341,-0.011471123,-0.05164758,-0.0041447664,-23.8384291279,2.3268638099,166.5858140074
-87.64716966,41.86967587,0,5.1094513,14-54-23-175,1500580463178,0.27874476,-0.18587631,0.10798284,341,0.01569312,-0.050049685,0.021421582,-24.0962499861,2.3443085399,166.6054166503
-87.6471697,41.86967579,0,5.1183085,14-54-23-274,1500580463275,0.47573918,-0.18758911,0.17326151,341,0.023149973,-0.12248767,0.0038447173,-24.3971146964,2.1996502559,166.5042069072
-87.6471697,41.86967579,0,5.1183085,14-54-23-384,1500580463387,0.26101857,-0.19760026,0.16887707,341,-0.033841677,-0.113965556,-0.0068079275,-25.3328301221,2.2465264845,166.6893596752
-87.6471697,41.86967579,0,5.1183085,14-54-23-483,1500580463484,0.33845815,-0.21909253,0.14692849,341,0.005573109,-0.0750834,-0.0025468695,-25.840782753,2.3675275545,166.8630923669
-87.6471697,41.86967579,0,5.1183085,14-54-23-583,1500580463584,0.25966787,-0.1272269,-0.08100383,341,-0.0034816393,-0.04419073,-0.0068079275,-26.2306892244,2.3772654833,166.8083552309
-87.6471697,41.86967579,0,5.1183085,14-54-23-684,1500580463685,0.28945157,-0.221557,0.15499738,341,0.0066383732,-0.05164758,0.007573142,-26.5694375789,2.4228734312,166.8961778033
-87.6471697,41.86967579,0,5.1183085,14-54-23-783,1500580463784,0.37773442,-0.19751617,0.049467042,342,0.011432063,-0.06549602,0.0038447173,-26.9248942837,2.4000563305,166.8766024811
-87.6471697,41.86967579,0,5.1183085,14-54-23-884,1500580463885,0.37476736,-0.19699642,0.11212493,342,0.0013120507,-0.035668615,-0.015862675,-27.1541256775,2.3828244035,166.8373425538
-87.6471697,41.86967579,0,5.1183085,14-54-23-987,1500580463987,0.2364853,-0.15802602,-0.013931542,341,-0.03490694,0.020790402,0.0017141883,-27.3502818803,2.4782797123,166.8057460987
-87.6471697,41.86967579,0,5.1183085,14-54-24-085,1500580464087,0.23574975,-0.16517459,-0.0001449919,341,-0.01786271,0.045824114,0.010768937,-27.2718081294,2.5362257565,166.8356486668
-87.6471697,41.86967579,0,5.1183085,14-54-24-186,1500580464187,0.2944703,-0.15345143,-0.15380126,341,-0.024786927,0.2221254,-0.030243745,-26.8994723196,2.5531061422,166.795937947
-87.64716973,41.86967574,0,5.1238422,14-54-24-287,1500580464288,0.22172499,-0.19538805,0.25293666,340,-0.019993238,0.30255285,-0.059005886,-25.601635632,2.8400869989,166.8866701799
-87.64716973,41.86967574,0,5.1238422,14-54-24-387,1500580464390,0.24663366,-0.07619483,0.20159204,339,0.012497327,0.37232766,-0.0073405597,-23.6414703779,3.1650913053,166.8057187779
-87.64716973,41.86967574,0,5.1238422,14-54-24-487,1500580464488,0.42044896,-0.16815162,0.17874652,338,0.0050404766,0.29403073,-0.0041447664,-21.7467195531,3.0896749178,166.6260028405
-87.64716973,41.86967574,0,5.1238422,14-54-24-588,1500580464589,0.32977447,-0.12089733,0.32676873,338,0.02208471,0.24928963,0.0022468206,-19.7501237776,3.0340011921,166.5097803415
-87.64716973,41.86967574,0,5.1238422,14-54-24-687,1500580464688,0.25306448,-0.21536306,0.011597584,337,-0.02531956,0.2620728,0.0006489238,-18.4949194232,2.961889122,166.39093505
-87.64716973,41.86967574,0,5.1238422,14-54-24-787,1500580464788,0.28407747,-0.16094024,0.1741332,337,0.029008927,0.17791691,0.0006489238,-17.3464640954,2.9162380586,166.3522078774
-87.64716973,41.86967574,0,5.1238422,14-54-24-888,1500580464889,0.31312853,-0.17379315,0.261928,336,0.009834166,0.14968741,0.020356316,-16.4420172757,2.8312901421,166.2431707375
-87.64716973,41.86967574,0,5.1238422,14-54-24-989,1500580464990,0.39538237,-0.13016932,0.22781467,336,-0.031178515,0.059139922,0.016095258,-15.61949516,2.6922234352,166.1435182775
-87.64716973,41.86967574,0,5.1238422,14-54-25-089,1500580465090,0.28418133,-0.17405598,0.14339674,336,0.0007794186,0.1262516,0.0049099815,-15.2625750872,2.6176061798,166.3003121001
-87.64716973,41.86967574,0,5.1238422,14-54-25-188,1500580465189,0.17343432,-0.15185209,0.006847113,336,-0.025852192,0.24076752,0.0054426137,-14.4420217735,2.6101230673,166.2284311892
-87.64716981,41.86967565,0,5.1337924,14-54-25-289,1500580465289,0.28827447,-0.1770947,0.27292004,335,-0.0013511104,0.1166642,0.0027794528,-13.2750856614,2.6256638821,166.2538804741
-87.64716981,41.86967565,0,5.1337924,14-54-25-389,1500580465390,0.29576048,-0.14099145,0.13300583,334,-0.005079536,0.08790206,0.010768937,-12.6293390867,2.6137748706,166.1996351117
-87.64716981,41.86967565,0,5.1337924,14-54-25-489,1500580465490,0.27691814,-0.15439162,0.2641412,334,0.058836333,0.09855471,0.012899466,-12.121344621,2.4914071224,166.0792461974
-87.64716981,41.86967565,0,5.1337924,14-54-25-590,1500580465590,0.21025662,-0.0795635,0.08460288,334,-0.0008184781,0.17312323,0.03367212,-11.3789483082,2.3243831706,165.7581726649
-87.64716981,41.86967565,0,5.1337924,14-54-25-689,1500580465690,0.2625133,-0.24397151,0.22577892,334,0.0066383732,0.1331758,0.020356316,-10.4831416778,2.1416489298,165.7761907039
-87.64716981,41.86967565,0,5.1337924,14-54-25-790,1500580465790,0.26274902,-0.104529195,0.17144698,334,-0.01573218,0.13051264,0.013432098,-9.7931986565,2.0609052082,165.6460756002
-87.64716981,41.86967565,0,5.1337924,14-54-25-890,1500580465890,0.30142662,-0.23287942,0.3221193,333,-0.007742697,0.14169793,0.016627891,-9.0147269921,1.9988111047,165.7039409629
-87.64716981,41.86967565,0,5.1337924,14-54-25-989,1500580465990,0.19602147,-0.10456176,0.15620595,331,0.02954156,0.20934221,-0.0068079275,-7.8035175937,1.9825622981,165.5438959702
-87.64716981,41.86967565,0,5.1337924,14-54-26-090,1500580466091,0.24423659,-0.17257376,0.34424242,329,-0.047690112,0.06393361,0.03846581,-6.6842028411,1.9482203204,165.4876561926
-87.64716981,41.86967565,0,5.1337924,14-54-26-189,1500580466191,0.37881422,-0.2302709,0.136516,329,0.009301534,0.11985999,-0.028645849,-6.2477324088,1.8659227308,165.6767294892
-87.64716991,41.86967553,0,5.147075,14-54-26-290,1500580466291,0.17438264,-0.15107557,0.05623382,326,-0.040765893,0.17365585,0.012899466,-5.548350493,1.9364213821,165.6132360507
-87.64716991,41.86967553,0,5.147075,14-54-26-391,1500580466392,0.31748092,-0.2265022,0.3316585,322,0.009834166,0.24662647,-0.0030795017,-4.369219505,1.9044428633,165.7319037573
-87.64716991,41.86967553,0,5.147075,14-54-26-490,1500580466491,0.2349516,-0.18846163,0.311365,315,0.0023773152,0.06553151,0.016095258,-3.1148537698,1.8786576185,165.6693665453
-87.64716991,41.86967553,0,5.147075,14-54-26-592,1500580466593,0.23102736,-0.13545108,0.11960652,309,-0.016264811,0.085238904,0.0054426137,-2.4988176642,1.834423179,165.6097526542
-87.64716991,41.86967553,0,5.147075,14-54-26-692,1500580466695,0.2314061,-0.16690433,0.10569048,304,-0.0024163749,0.13530634,-0.003612134,-2.0338666237,1.8177989254,165.6736285833
-87.64716991,41.86967553,0,5.147075,14-54-26-797,1500580466798,0.2578688,-0.1871247,0.20933293,287,0.011964695,0.19975483,-0.010536352,-1.1154403278,1.8572641853,165.596925559
-87.64716991,41.86967553,0,5.147075,14-54-26-895,1500580466896,0.23188013,-0.15201631,0.25454465,251,0.015160489,0.19762431,0.0038447173,0.1532286506,1.8364207959,165.5469012535
-87.64716991,41.86967553,0,5.147075,14-54-26-991,1500580466991,0.2366236,-0.14400807,0.23639682,221,-0.013601652,0.17152533,-0.027580583,1.2758345138,1.8637349358,165.5056742317
-87.64716991,41.86967553,0,5.147075,14-54-27-092,1500580467093,0.11913325,-0.11821607,0.11029998,207,-0.024786927,0.20827696,-0.018525837,2.2813702677,2.0084478613,165.5423523475
-87.64716991,41.86967553,0,5.147075,14-54-27-191,1500580467192,0.2116661,-0.122756794,0.20679037,196,-0.0072100647,0.20508116,0.012899466,3.5127432382,2.0689705944,165.5652061605
-87.64717003,41.86967539,0,5.162588,14-54-27-292,1500580467293,0.23488551,-0.08201979,0.2796863,190,-0.002949007,0.18750429,-0.022254262,4.5970682124,2.0688630189,165.5319977807
-87.64717003,41.86967539,0,5.162588,14-54-27-392,1500580467393,0.3456525,-0.13811798,0.39824277,187,0.0066383732,0.069259934,-0.0068079275,5.5404415608,2.1199763127,165.5347025356
-87.64717003,41.86967539,0,5.162588,14-54-27-492,1500580467493,0.22551705,-0.12608612,0.32688084,185,-0.005612168,-0.014363325,0.008105775,5.9028373109,2.1378720487,165.4912352117
-87.64717003,41.86967539,0,5.162588,14-54-27-593,1500580467594,0.2466092,-0.18220341,0.31611335,185,0.001844683,0.017061975,-0.0025468695,5.9212024089,2.1107250349,165.4989260048
-87.64717003,41.86967539,0,5.162588,14-54-27-692,1500580467693,0.17845315,-0.18912645,0.10134103,185,-0.0061448,0.029312517,0.0049099815,6.055966737,2.0880114543,165.4946776271
-87.64717003,41.86967539,0,5.162588,14-54-27-793,1500580467794,0.1533803,-0.21624905,0.3523795,184,-0.014134284,0.009605125,0.008105775,6.2888501476,2.0708922255,165.5708888778
-87.64717003,41.86967539,0,5.162588,14-54-27-894,1500580467894,0.2152993,-0.1764516,0.21286818,183,-0.024786927,0.044226218,0.0017141883,6.4942160067,2.0237092787,165.6181537869
-87.64717003,41.86967539,0,5.162588,14-54-27-993,1500580467994,0.23873535,-0.16346684,0.28035447,182,-0.014134284,0.014931447,0.0070405104,6.8057921612,1.9982979867,165.7040775667
-87.64717003,41.86967539,0,5.162588,14-54-28-094,1500580468094,0.21508938,-0.12619382,0.14837101,182,0.011432063,0.033040944,-0.0030795017,6.9584746368,1.9764804415,165.7168090393
-87.64717003,41.86967539,0,5.162588,14-54-28-193,1500580468194,0.11790721,-0.15061516,0.24497357,181,-0.008275329,0.006409331,0.0043773493,7.0458523931,1.9828540753,165.6655552997
-87.64717015,41.86967526,0,5.1770096,14-54-28-294,1500580468295,0.21018517,-0.13245533,0.17624341,181,0.03966157,0.011203022,-0.016395306,7.0521634878,1.9676344928,165.6603506956
-87.64717015,41.86967526,0,5.1770096,14-54-28-395,1500580468395,0.28557387,-0.18094921,0.48849338,181,0.03966157,-0.053778112,0.010236304,7.0756017089,2.026220227,165.452070907
-87.64717015,41.86967526,0,5.1770096,14-54-28-495,1500580468496,0.16333699,-0.19088018,0.20221746,182,0.013562592,-0.0585718,0.003312085,6.7460237371,1.9646452178,165.2868622914
-87.64717015,41.86967526,0,5.1770096,14-54-28-596,1500580468596,0.12083467,-0.16046599,0.15333548,183,0.025813134,-0.067093916,-0.0068079275,6.3321492781,1.9961964229,165.1720604718
-87.64717015,41.86967526,0,5.1770096,14-54-28-695,1500580468696,0.2941177,-0.17314367,0.24534588,184,0.0082362695,-0.087866575,-0.015330043,6.0208903005,2.0224723741,165.056780539
-87.64717015,41.86967526,0,5.1770096,14-54-28-796,1500580468797,0.1032992,-0.22094677,0.07884288,186,-0.029047985,-0.033005454,-0.0009489729,5.5740469453,2.1194638351,165.0156764606
-87.64717015,41.86967526,0,5.1770096,14-54-28-896,1500580468897,0.2833006,-0.101553775,0.21836501,187,0.016225753,-0.023950707,-0.025450055,5.4322372771,2.1283710421,165.0848389561
-87.64717015,41.86967526,0,5.1770096,14-54-28-995,1500580468996,0.22409321,-0.1899499,0.3321316,188,-0.0024163749,-0.047386523,0.012899466,5.3423306433,2.2319073184,165.0679137474
-87.64717015,41.86967526,0,5.1770096,14-54-29-096,1500580469096,0.29455507,-0.11590441,0.29145595,189,-0.0045469035,-0.17308772,-0.015330043,5.0007481871,2.1747776952,165.1061491463
-87.64717015,41.86967526,0,5.1770096,14-54-29-195,1500580469196,0.15933035,-0.1329873,0.13999212,192,-0.012536387,-0.038864408,0.0038447173,4.2877007703,2.1986391745,165.161705905
-87.64717025,41.86967514,0,5.190338,14-54-29-295,1500580469296,0.22795717,-0.14092466,0.23201554,194,0.010899431,-0.07721393,-0.016927939,3.9824536399,2.1992771568,165.2322890799
-87.64717025,41.86967514,0,5.190338,14-54-29-396,1500580469396,0.26085526,-0.14826739,0.44030684,199,0.0023773152,-0.2274162,-0.015862675,3.4444590624,2.2936246943,165.2230546642
-87.64717025,41.86967514,0,5.190338,14-54-29-495,1500580469496,0.3199899,-0.14436385,0.4536733,211,-0.002949007,-0.29985422,-0.037700597,2.2729761786,2.3746774819,165.2013619834
-87.64717025,41.86967514,0,5.190338,14-54-29-596,1500580469597,0.103788026,-0.1999775,0.19868372,246,0.025813134,-0.4617744,0.017693156,0.3960106862,2.5388188805,165.1345217522
-87.64717025,41.86967514,0,5.190338,14-54-29-696,1500580469697,0.40509522,-0.14284296,0.36892986,289,-0.057810124,-0.22422041,0.0043773493,-1.62956809,2.4366650772,165.2853869705
-87.64717025,41.86967514,0,5.190338,14-54-29-796,1500580469797,0.15634727,-0.16735527,0.03968651,303,-0.03277641,-0.13367294,-0.015330043,-2.7693469431,2.5106479787,165.6087827674
-87.64717025,41.86967514,0,5.190338,14-54-29-897,1500580469898,0.10907993,-0.0939739,0.33026552,307,0.018888915,0.009072493,-0.017460572,-3.2625292898,2.6078804173,165.7964763658
-87.64717025,41.86967514,0,5.190338,14-54-29-998,1500580469999,0.37829784,-0.03162539,0.16622142,305,0.025813134,0.052748334,-0.022786895,-3.1309183747,2.6642369485,165.7310021724
-87.64717025,41.86967514,0,5.190338,14-54-30-099,1500580470099,0.663351,-0.11037091,0.40415138,302,0.061499495,-0.052712847,-0.03823323,-2.8505463664,2.7245927689,165.6375515241
-87.64717025,41.86967514,0,5.190338,14-54-30-198,1500580470199,0.040662434,-0.14953542,0.0778354,302,0.032737352,-0.0138306925,-0.030776378,-3.1065224331,2.9174862757,165.2596644781
-87.64717033,41.86967498,0,5.208119,14-54-30-299,1500580470300,0.13132931,-0.14112107,0.22587311,300,0.06522792,0.04635675,0.05071635,-3.0436144699,3.0238333883,165.0405793303
-87.64717033,41.86967498,0,5.208119,14-54-30-429,1500580470430,0.35450813,-0.22413202,0.19252893,301,0.081739515,0.0021482736,-0.022786895,-2.8933296041,2.7748650956,164.5744052591
-87.64717033,41.86967498,0,5.208119,14-54-30-499,1500580470499,0.19255711,-0.21612735,0.28104708,300,0.07907635,0.013333551,-0.012134249,-2.9133849605,2.8374396602,164.3023041829
-87.64717033,41.86967498,0,5.208119,14-54-30-599,1500580470600,0.15462214,-0.14914604,0.060757156,299,-0.014666916,0.040497795,0.044857398,-2.8284406726,2.8210015293,163.8788734355
-87.64717033,41.86967498,0,5.208119,14-54-30-699,1500580470700,0.30448693,-0.18564342,0.32746857,299,0.05617317,-0.0021127842,-0.0137321465,-2.6488882328,2.631184169,163.7776636924
-87.64717033,41.86967498,0,5.208119,14-54-30-799,1500580470799,0.27044803,-0.21257564,0.058416847,298,0.001844683,0.021855665,-0.0195911,-2.6817395217,2.6802821301,163.4194339308
-87.64717033,41.86967498,0,5.208119,14-54-30-898,1500580470899,0.17144099,-0.1273338,0.28756353,296,-0.01573218,0.0074745957,-0.014264778,-2.6229984007,2.8107391701,163.4842114449
-87.64717033,41.86967498,0,5.208119,14-54-30-999,1500580470999,0.3201306,-0.113185324,0.27313387,295,0.008768902,0.004811435,-0.008938456,-2.5378455786,2.8828100456,163.6291343987
-87.64717033,41.86967498,0,5.208119,14-54-31-098,1500580471099,0.2809284,-0.085119195,0.21720478,294,0.023682605,0.0021482736,0.012366833,-2.4524144262,2.8722300826,163.5513385441
-87.64717033,41.86967498,0,5.208119,14-54-31-199,1500580471200,0.22550148,-0.09524581,0.19805674,295,0.17122173,0.058607288,-0.0025468695,-2.5192903025,2.7920203964,163.2949059219
-87.64717039,41.86967485,0,5.222571,14-54-31-302,1500580471306,0.14405037,-0.06341822,0.20354936,290,0.09771848,0.04262832,0.035270017,-2.1390462009,2.7860126047,162.1962836542
-87.64717039,41.86967485,0,5.222571,14-54-31-399,1500580471400,0.29672703,-0.12314589,0.26091495,288,0.066825815,0.013333551,0.036335282,-1.9379233833,2.6031697212,161.6133543293
-87.64717039,41.86967485,0,5.222571,14-54-31-500,1500580471500,0.36402905,-0.17047484,0.3729163,288,0.17441753,-0.005308577,0.017160524,-1.8049131332,2.4032803932,161.0285262118
-87.64717039,41.86967485,0,5.222571,14-54-31-602,1500580471605,0.2538538,-0.20132273,0.2013962,291,0.1957228,-0.045788627,0.015562626,-1.9928361833,2.2622188442,160.0363456123
-87.64717039,41.86967485,0,5.222571,14-54-31-702,1500580471704,0.20284177,-0.11727497,0.11245353,296,0.1376659,0.012800918,0.024084741,-2.2480914516,2.1045306937,158.9737867434
-87.64717039,41.86967485,0,5.222571,14-54-31-803,1500580471807,0.27510318,-0.13252424,0.26759642,298,0.1573733,0.0058766995,0.017160524,-2.3211437399,1.9525828903,157.9368684048
-87.64717039,41.86967485,0,5.222571,14-54-31-906,1500580471907,0.32528785,-0.22172786,0.3326098,299,0.14405748,-0.0042433133,-0.017460572,-2.3746589124,1.8472763143,157.0914002686
-87.64717039,41.86967485,0,5.222571,14-54-32-006,1500580472006,0.27353474,-0.1043726,0.16534221,300,0.15630803,-0.0010475197,-0.024917422,-2.5458275084,1.8590056701,156.006356417
-87.64717039,41.86967485,0,5.222571,14-54-32-107,1500580472112,0.31642097,-0.039109338,0.209113,297,0.14512275,0.013866183,-0.07125642,-2.574057534,2.0312781955,155.2851430822
-87.64717039,41.86967485,0,5.222571,14-54-32-203,1500580472204,0.24475104,0.0032875862,0.33592364,292,0.15630803,-0.032472823,-0.020656364,-2.5170990924,2.3271483299,154.3648570538
-87.64717045,41.86967473,0,5.2359166,14-54-32-304,1500580472306,0.2293247,-0.087688625,0.33408982,291,0.1376659,0.011203022,0.018225787,-2.5670734521,2.3476521309,153.6606099089
-87.64717045,41.86967473,0,5.2359166,14-54-32-403,1500580472405,0.2741987,-0.115019545,0.33985314,292,0.22075653,-0.008504371,0.00917104,-2.5598398549,2.2254218403,152.7973286393
-87.64717045,41.86967473,0,5.2359166,14-54-32-504,1500580472505,0.27163145,-0.11118406,0.17196114,293,0.13287221,0.011735654,0.0054426137,-2.6484028625,2.1418476456,151.5931253075
-87.64717045,41.86967473,0,5.2359166,14-54-32-605,1500580472606,0.23970789,-0.17589737,0.35213077,293,0.08600057,-0.0042433133,0.014497362,-2.617313122,2.0505075259,150.8940691063
-87.64717045,41.86967473,0,5.2359166,14-54-32-704,1500580472705,0.24634013,-0.09189837,0.30325022,293,0.1344701,0.015996711,0.013964729,-2.6023223509,1.9774539569,150.2975750257
-87.64717045,41.86967473,0,5.2359166,14-54-32-805,1500580472806,0.23107155,-0.075952336,0.36298326,292,0.19199438,0.02505146,-0.019058468,-2.5496528412,1.9757679674,149.4336517183
-87.64717045,41.86967473,0,5.2359166,14-54-32-904,1500580472912,0.2448252,-0.09335291,0.16467184,290,0.18879859,0.022920929,0.03047633,-2.3804285012,1.8996798735,148.239720991
-87.64717045,41.86967473,0,5.2359166,14-54-33-005,1500580473006,0.34195757,-0.0026394932,0.26880726,290,0.110501654,-0.019157017,0.014497362,-2.3114130682,1.7868799397,147.3000782065
-87.64717045,41.86967473,0,5.2359166,14-54-33-106,1500580473107,0.18915485,-0.045189902,0.3573184,292,0.083870046,0.026116723,0.045922663,-2.3661241641,1.6031765592,146.6238348372
-87.64717045,41.86967473,0,5.2359166,14-54-33-204,1500580473205,0.17735103,-0.061051987,0.10360401,297,0.067891076,0.0538136,0.096522726,-2.3603477451,1.2841522969,146.0419163803
-87.64717048,41.86967467,0,5.242591,14-54-33-303,1500580473304,0.3841322,-0.035197854,0.2545628,311,0.06842371,-0.0021127842,0.15777543,-2.1556175205,0.5738322066,145.6041149149
-87.64717048,41.86967467,0,5.242591,14-54-33-406,1500580473407,0.27675727,-0.10574014,0.35863626,335,0.0583037,-0.01329806,0.1391333,-2.0457927744,-0.3534114367,145.2730556458
-87.64717048,41.86967467,0,5.242591,14-54-33-504,1500580473505,0.17068093,-0.1182031,0.35782033,353,0.089728996,0.003213538,0.09599009,-2.0667682853,-1.1087034134,144.9195660355
-87.64717048,41.86967467,0,5.242591,14-54-33-606,1500580473607,0.30851558,-0.100012004,0.24911863,4,0.13233958,0.04635675,0.03420475,-1.9620958497,-1.6151532959,144.305094897
-87.64717048,41.86967467,0,5.242591,14-54-33-707,1500580473711,0.2522818,-0.07531012,0.35223535,11,0.18080911,0.012800918,0.02355211,-1.6434082944,-1.777350225,143.3706976978
-87.64717048,41.86967467,0,5.242591,14-54-33-810,1500580473810,0.22424914,-0.009056499,0.37468457,13,0.09505532,-0.057506535,0.0432595,-1.6098210526,-1.9294951434,142.3531361152
-87.64717048,41.86967467,0,5.242591,14-54-33-908,1500580473909,0.2799907,-0.004360434,0.31849372,11,0.079608984,-0.031407557,0.08267429,-1.9219420214,-2.2306742558,141.8826863456
-87.64717048,41.86967467,0,5.242591,14-54-34-014,1500580474015,0.25781366,0.017128184,0.27489036,12,0.09026163,-0.072952874,0.04752056,-2.1957978158,-2.6494248295,141.3317769475
-87.64717048,41.86967467,0,5.242591,14-54-34-113,1500580474114,0.19881192,-0.076881565,0.41103694,12,0.0865332,-0.02235281,0.042726867,-2.4198937611,-2.9567340367,140.7985304186
-87.64717048,41.86967467,0,5.242591,14-54-34-215,1500580474216,0.23379669,-0.043053266,0.3870371,13,0.21489757,-0.017026488,-0.0062752953,-2.3977033303,-3.1358536133,140.02121391
-87.64717051,41.86967459,0,5.251488,14-54-34-314,1500580474315,0.16355005,-0.165413,0.5724024,14,0.39119884,0.012800918,-0.0062752953,-2.2454052663,-3.261134864,138.4793806671
-87.64717051,41.86967459,0,5.251488,14-54-34-414,1500580474415,0.31276402,0.07940028,0.4445979,13,0.2979882,-0.035668615,-0.0073405597,-2.0769450537,-3.2061272952,136.3950254985
-87.64717051,41.86967459,0,5.251488,14-54-34-517,1500580474518,0.33932278,0.13822447,0.20518984,11,0.052444745,-0.08467078,0.051781617,-2.3533818059,-3.4040380028,135.2286067731
-87.64717051,41.86967459,0,5.251488,14-54-34-615,1500580474615,0.1865336,-0.05942856,0.33152786,8,0.029008927,-0.06283286,0.041661605,-2.7466956879,-3.66792599,135.0258321171
-87.64717051,41.86967459,0,5.251488,14-54-34-715,1500580474716,0.19648172,0.051863626,0.28776804,7,0.09612058,-0.014363325,0.036867913,-2.9902241618,-3.8650879381,134.6719736765
-87.64717051,41.86967459,0,5.251488,14-54-34-816,1500580474817,0.28513157,0.07273129,0.50258476,10,0.118491136,-0.015961222,0.09705536,-2.966477515,-4.3241786763,134.1195343161
-87.64717051,41.86967459,0,5.251488,14-54-34-916,1500580474916,0.20609863,-0.09770972,0.39688125,11,0.23247443,-0.02022228,0.006507878,-3.0020771013,-4.738401048,133.2215693459
-87.64717051,41.86967459,0,5.251488,14-54-35-016,1500580475016,0.3001174,0.09555977,0.29180086,11,0.19092911,0.03197568,-0.028645849,-2.8321641929,-4.7634776607,132.0158633725
-87.64717051,41.86967459,0,5.251488,14-54-35-120,1500580475122,0.2526303,0.026204297,0.2812995,11,0.15311223,-0.016493855,-0.034504805,-2.7001978945,-4.6872087802,130.9423488803
-87.64717051,41.86967459,0,5.251488,14-54-35-215,1500580475216,0.12892528,-0.10156469,0.5288206,10,0.1211543,-0.02235281,0.024084741,-2.7120615062,-4.6187719922,130.3038901174
-87.64717052,41.86967452,0,5.2592673,14-54-35-316,1500580475317,0.48171777,0.10637889,0.32949808,9,0.13660063,-0.026081234,-0.0025468695,-2.7547237215,-4.7407152015,129.4694459065
-87.64717052,41.86967452,0,5.2592673,14-54-35-416,1500580475417,0.15404263,-0.0013428896,0.27470434,7,0.15044907,-0.01968965,-0.016927939,-2.8944375889,-4.7179211527,128.655956716
-87.64717052,41.86967452,0,5.2592673,14-54-35-519,1500580475520,0.22413337,-0.004104736,0.36141253,7,0.10411007,-0.026081234,0.019823683,-2.8788861019,-4.751689181,127.8721788483
-87.64717052,41.86967452,0,5.2592673,14-54-35-617,1500580475618,0.35473058,-0.12609431,0.15732001,5,0.0002467863,-0.08200762,-0.05048377,-3.0133898156,-4.7598913845,127.4182444761
-87.64717052,41.86967452,0,5.2592673,14-54-35-716,1500580475717,0.057014555,-0.030370628,0.2779175,3,-0.060473286,-0.004775945,0.029411064,-3.1658460412,-4.5447869563,127.6413321148
-87.64717052,41.86967452,0,5.2592673,14-54-35-817,1500580475818,0.22391269,-0.13499661,0.24369414,3,0.010899431,0.013866183,-0.02917848,-3.1637562167,-4.5993021111,127.853860281
-87.64717052,41.86967452,0,5.2592673,14-54-35-918,1500580475918,0.12857366,0.114579804,0.27875835,3,-0.005079536,0.012268286,-0.0030795017,-3.0631355774,-4.3634458607,127.6716991358
-87.64717052,41.86967452,0,5.2592673,14-54-36-019,1500580476020,0.3821215,0.16858082,0.44387,3,0.12221956,0.006409331,-0.0062752953,-3.0118850395,-4.3980390613,127.5003023688
-87.64717052,41.86967452,0,5.2592673,14-54-36-119,1500580476119,0.23405096,0.058548536,0.32545075,2,0.17122173,-0.067093916,-0.0137321465,-3.1214171547,-4.4203088931,126.6964574054
-87.64717052,41.86967452,0,5.2592673,14-54-36-219,1500580476220,0.16813374,0.060830902,0.29062417,358,0.087598465,-0.046853893,0.009703672,-3.3608261707,-4.3593345137,125.8287638336
-87.64717048,41.86967447,0,5.264805,14-54-36-424,1500580476434,0.3176012,0.117932074,0.24424416,357,0.095587954,0.013866183,-0.01479741,-3.3865932728,-4.4262157261,124.7681037574
-87.64717048,41.86967447,0,5.264805,14-54-36-436,1500580476441,0.3176012,0.117932074,0.24424416,357,0.095587954,0.013866183,-0.01479741,-3.3865932728,-4.4262157261,124.7681037574
-87.64717048,41.86967447,0,5.264805,14-54-36-537,1500580476538,0.30705228,0.081641346,0.39355162,357,0.07002161,-0.045788627,0.024617374,-3.443117784,-4.4453325718,124.3330070469
-87.64717048,41.86967447,0,5.264805,14-54-36-637,1500580476638,0.22588429,0.032806817,0.3623178,357,0.015160489,-0.023418074,0.03100896,-3.536831181,-4.6248453111,124.0878032557
-87.64717048,41.86967447,0,5.264805,14-54-36-738,1500580476738,0.28473726,0.10171371,0.5213199,357,0.0066383732,-0.04099494,0.026747903,-3.622395949,-4.7957660993,124.0718615941
-87.64717048,41.86967447,0,5.264805,14-54-36-837,1500580476842,0.2187554,0.03790525,0.38446546,356,-0.045559585,0.022388298,-0.03343954,-3.8116728706,-4.868054687,124.2495967767
-87.64717048,41.86967447,0,5.264805,14-54-36-937,1500580476938,0.26918942,0.045101088,0.2578052,356,-0.116399676,0.0026809059,0.016627891,-3.7848464488,-4.7838440041,124.5908330277
-87.64717048,41.86967447,0,5.264805,14-54-37-039,1500580477039,0.2482052,0.032717902,0.30887088,357,-0.16753237,0.040497795,-0.030243745,-3.7909931922,-4.776285546,125.5101628296
-87.64717048,41.86967447,0,5.264805,14-54-37-142,1500580477143,0.3019939,0.07167183,0.39677367,358,-0.12758495,0.011203022,-0.011068985,-3.6372025184,-4.5889889524,126.3141034156
-87.64717048,41.86967447,0,5.264805,14-54-37-238,1500580477239,0.13742836,-0.11054558,0.01953,358,-0.28630933,0.011203022,0.021421582,-3.603106641,-4.4602936743,127.3368559419
-87.64717048,41.86967447,0,5.264805,14-54-37-344,1500580477345,0.19472077,0.16119117,0.60853064,0,-0.17445658,0.028247252,-0.032374274,-3.5372999027,-4.3337806416,128.8551113718
-87.64717048,41.86967447,0,5.264805,14-54-37-441,1500580477444,0.42347518,0.16471747,0.3488796,359,-0.112138614,-0.017026488,-0.019058468,-3.6467673446,-4.2155983053,129.6477411646
-87.64717048,41.86967447,0,5.264805,14-54-37-541,1500580477543,0.2940241,-0.029616171,0.30570233,358,-0.23677456,-0.035668615,0.014497362,-3.8283137727,-4.1183278737,130.5789964768
-87.64717048,41.86967447,0,5.264805,14-54-37-641,1500580477642,0.17528114,-0.03191338,0.14354067,357,-0.21014294,0.08044521,-0.013199514,-3.9628416055,-4.0174933641,131.7588843352
-87.64717048,41.86967447,0,5.264805,14-54-37-741,1500580477741,0.31097803,-0.003626446,0.4423063,358,-0.06473435,0.020790402,-0.07498485,-3.8059124598,-3.8737387996,132.7547805577
-87.64717048,41.86967447,0,5.264805,14-54-37-844,1500580477845,0.23522933,0.045783684,0.32920355,356,-0.19309871,0.024518827,-0.028645849,-3.6421202546,-3.3910843356,133.4484955509
-87.64717048,41.86967447,0,5.264805,14-54-37-946,1500580477947,0.3965092,0.0677442,0.18251853,357,-0.26606932,-0.0005148875,-0.012666881,-3.7014016009,-3.3084702094,134.6897731495
-87.64717048,41.86967447,0,5.264805,14-54-38-046,1500580478048,0.3338382,0.09442715,0.42336893,357,-0.34915996,-0.018091751,-0.0030795017,-3.679147137,-3.0941772931,136.4430417283
-87.64717048,41.86967447,0,5.264805,14-54-38-147,1500580478149,0.2517162,0.011207328,0.6020869,357,-0.21227348,-0.09958448,0.0049099815,-3.7793191183,-2.9603913896,138.4607342507
-87.64717048,41.86967447,0,5.264805,14-54-38-246,1500580478247,0.2744765,-0.07181944,0.20349275,355,-0.27512407,0.040497795,-0.0062752953,-4.1497053359,-2.903065185,139.8019511772
-87.64717048,41.86967447,0,5.264805,14-54-38-346,1500580478347,0.37436897,-0.018703002,0.19372535,356,-0.32625675,0.07192309,-0.056342725,-4.0402626535,-2.7529649478,141.4191897085
-87.64717048,41.86967447,0,5.264805,14-54-38-447,1500580478448,0.15437073,-0.036400616,0.0021975522,355,-0.34756204,0.012268286,-0.012134249,-3.8465845287,-2.3635645507,143.3439233563
-87.6471704,41.86967438,0,5.2747765,14-54-38-547,1500580478548,0.17736818,-0.16101447,0.30069202,355,-0.3086799,0.071390465,-0.04036376,-3.7105937548,-2.1360366488,145.3384888581
-87.6471704,41.86967438,0,5.2747765,14-54-38-649,1500580478649,0.11842084,-0.25782824,0.06601303,354,-0.34915996,0.044758853,-0.04249429,-3.4552770148,-1.7837969631,147.079162568
-87.6471704,41.86967438,0,5.2747765,14-54-38-749,1500580478750,0.3748708,-0.19971263,0.42189032,355,-0.41680422,0.008007228,-0.04089639,-3.052472158,-1.4048771711,149.781991366
-87.6471704,41.86967438,0,5.2747765,14-54-38-850,1500580478851,0.30612373,-0.13427567,0.33782178,352,-0.41254318,-0.02501597,0.0001162916,-3.2989254469,-1.1637945453,152.1482147813
-87.6471704,41.86967438,0,5.2747765,14-54-38-951,1500580478951,0.2835378,-0.20777763,0.46647015,350,-0.31081042,-0.07721393,-0.028113216,-3.5331392503,-0.9890858836,154.3135076916
-87.6471704,41.86967438,0,5.2747765,14-54-39-050,1500580479051,0.26586542,-0.15047175,0.34163755,348,-0.23144823,0.058074657,-0.027047953,-3.5827671914,-0.7452201691,156.0109736249
-87.6471704,41.86967438,0,5.2747765,14-54-39-151,1500580479152,0.222136,-0.16431892,0.25770336,346,-0.1696629,0.08470627,-0.029711112,-3.4462551887,-0.5395919881,157.2681655643
-87.64717037,41.86967437,0,5.27588,14-54-39-260,1500580479260,0.266562,-0.16790871,0.36284164,343,-0.12811758,-0.0026454164,-0.03343954,-3.1989005282,-0.2871782919,158.191170008
-87.64717037,41.86967437,0,5.27588,14-54-39-350,1500580479351,0.31284392,-0.12089017,0.2897632,338,-0.18830502,0.033040944,-0.07551748,-3.141623629,0.072640676,159.1181906029
-87.64717037,41.86967437,0,5.27588,14-54-39-450,1500580479451,0.25629103,-0.16666006,0.31178135,334,-0.18191344,-0.014363325,-0.016395306,-3.1202062902,0.3479628667,159.9616779842
-87.64717037,41.86967437,0,5.27588,14-54-39-550,1500580479551,0.26167506,-0.10668221,0.32354006,332,-0.1845766,-0.0031780486,0.0001162916,-3.0865797748,0.4716122358,160.9238194119
-87.64717037,41.86967437,0,5.27588,14-54-39-649,1500580479650,0.3219963,-0.17009006,0.26845315,334,-0.17392395,-0.026613867,0.00917104,-3.2110704312,0.5066235721,162.0029073385
-87.64717037,41.86967437,0,5.27588,14-54-39-751,1500580479752,0.26028797,-0.17600098,0.2750046,336,-0.14249866,-0.02235281,0.017693156,-3.4452628902,0.4452496266,163.2288579926
-87.64717037,41.86967437,0,5.27588,14-54-39-851,1500580479852,0.22396637,-0.18757594,0.20856684,338,-0.12598705,0.015996711,0.0038447173,-3.5166197975,0.3445217587,164.0966881681
-87.64717037,41.86967437,0,5.27588,14-54-39-952,1500580479952,0.19202472,-0.20979951,0.33540398,338,-0.12279126,0.052748334,0.0001162916,-3.3990494034,0.3911149613,164.9043307167
-87.64717037,41.86967437,0,5.27588,14-54-40-052,1500580480052,0.3989524,-0.1934393,0.24434619,336,-0.14889024,0.021323033,-0.06539747,-3.0960910267,0.5383175708,165.5804101615
-87.64717037,41.86967437,0,5.27588,14-54-40-152,1500580480153,0.14530882,-0.15155259,0.12268414,330,-0.13024811,0.014931447,-0.011068985,-3.0000799113,0.8900185787,166.1719865059
-87.64717034,41.86967438,0,5.274763,14-54-40-266,1500580480268,0.2724508,-0.21183077,0.23455852,328,-0.19682714,-0.026613867,-0.028645849,-2.9067135732,1.0209491429,167.0543923052
-87.64717034,41.86967438,0,5.274763,14-54-40-352,1500580480353,0.29247868,-0.1815084,0.19841914,326,-0.26021037,-0.0436581,-0.02651532,-3.0260943943,1.2433152362,168.2099783505
-87.64717034,41.86967438,0,5.274763,14-54-40-453,1500580480454,0.25601763,-0.11771158,0.14993519,326,-0.25807983,-0.021287546,-0.009471089,-3.1992014834,1.4168761059,169.6961182309
-87.64717034,41.86967438,0,5.274763,14-54-40-557,1500580480558,0.1418968,-0.1511632,0.15105106,326,-0.21706717,0.009605125,0.02355211,-3.3140829174,1.5164192829,170.9370133389
-87.64717034,41.86967438,0,5.274763,14-54-40-654,1500580480658,0.31522754,-0.22661464,0.2716765,328,-0.2575472,-0.025548603,0.016095258,-3.2849073374,1.4625094536,172.2304326016
-87.64717034,41.86967438,0,5.274763,14-54-40-753,1500580480754,0.2558941,-0.21999659,0.2853606,330,-0.11480178,-0.03194019,0.008638408,-3.3608842273,1.4318832055,173.4122875545
-87.64717034,41.86967438,0,5.274763,14-54-40-853,1500580480854,0.22714287,-0.18997826,0.11619231,331,-0.078582786,0.022920929,0.0054426137,-3.4221354428,1.4270065571,173.9119158923
-87.64717034,41.86967438,0,5.274763,14-54-40-955,1500580480956,0.26598662,-0.18854626,0.2600513,332,-0.15048814,-0.035135984,0.0118342005,-3.3532589615,1.4025386851,174.4727290646
-87.64717034,41.86967438,0,5.274763,14-54-41-054,1500580481055,0.35550165,-0.15434337,0.063502505,334,-0.16007552,0.006941964,-0.015862675,-3.4126348631,1.3293156421,174.9587243448
-87.64717034,41.86967438,0,5.274763,14-54-41-154,1500580481155,0.19882113,-0.18249501,0.2811454,332,-0.045559585,-0.031407557,-0.035037436,-3.2524897655,1.3830675233,175.5515711044
-87.64717027,41.86967441,0,5.271421,14-54-41-260,1500580481261,0.12416966,-0.29392576,0.3193425,331,-0.116399676,0.052215703,-0.0062752953,-3.2236168484,1.498375097,176.0898719733
-87.64717027,41.86967441,0,5.271421,14-54-41-357,1500580481358,0.302711,-0.22391582,0.20643017,330,-0.041831158,0.02771462,0.0054426137,-3.0324417745,1.4944652406,176.5319491371
-87.64717027,41.86967441,0,5.271421,14-54-41-457,1500580481459,0.31319895,-0.21354488,0.35611588,330,-0.005612168,-0.010102267,-0.008938456,-2.9011158063,1.4860559971,176.6920214505
-87.64717027,41.86967441,0,5.271421,14-54-41-557,1500580481558,0.22813487,-0.23835683,0.14913574,329,-0.0040142713,1.7744722E-05,-0.011601618,-2.9066177372,1.5413037965,176.6303858234
-87.64717027,41.86967441,0,5.271421,14-54-41-656,1500580481657,0.25884274,-0.1752224,0.2673173,326,0.061499495,0.0037461703,-0.023852158,-2.814647319,1.6332951321,176.4926892098
-87.64717027,41.86967441,0,5.271421,14-54-41-758,1500580481759,0.29395512,-0.19354716,0.17146775,326,0.008768902,0.006941964,0.021421582,-2.7742909328,1.6452876636,176.3003101016
-87.64717027,41.86967441,0,5.271421,14-54-41-858,1500580481859,0.23068091,-0.20825723,0.113087125,326,0.067891076,0.034638837,0.0038447173,-2.7129334225,1.5494787859,176.1055267669
-87.64717027,41.86967441,0,5.271421,14-54-41-957,1500580481958,0.30859804,-0.22714314,0.35330826,324,0.11689324,0.021855665,-0.020123733,-2.4834625452,1.524723619,175.6395166202
-87.64717027,41.86967441,0,5.271421,14-54-42-058,1500580482059,0.24456127,-0.16743554,0.16410433,323,0.182407,0.0058766995,-0.009471089,-2.4758808218,1.5618628793,174.9547764955
-87.64717027,41.86967441,0,5.271421,14-54-42-159,1500580482160,0.21232598,-0.21055233,0.2634261,319,0.3757525,-0.056441274,-0.063799575,-2.5658634414,1.7618847557,173.3420322287
-87.64717021,41.86967445,0,5.2669754,14-54-42-259,1500580482260,0.21494046,-0.19935158,0.09871829,316,0.25111657,0.035704102,-0.021188997,-2.7487470926,1.9553542396,171.3489830289
-87.64717021,41.86967445,0,5.2669754,14-54-42-359,1500580482359,0.3813353,-0.20958407,0.3546857,313,0.26123658,0.043693587,-0.03823323,-2.6435175697,2.012339575,169.961033948
-87.64717021,41.86967445,0,5.2669754,14-54-42-459,1500580482460,0.20282996,-0.16724493,-0.037878443,308,0.17335226,0.031443045,-0.039298493,-2.54860334,2.1573250677,168.4759459168
-87.64717021,41.86967445,0,5.2669754,14-54-42-560,1500580482560,0.22861688,-0.09358819,0.3752283,307,0.117425874,-0.05537601,0.0038447173,-2.6250188561,2.2932710186,167.7383128072
-87.64717021,41.86967445,0,5.2669754,14-54-42-659,1500580482660,0.23376074,-0.14150341,0.29910672,310,0.182407,-0.032472823,-0.0004163406,-2.9627057565,2.2246169452,166.9783722997
-87.64717021,41.86967445,0,5.2669754,14-54-42-760,1500580482761,0.26715007,-0.2290557,0.31099546,312,0.2319418,-0.05164758,-0.0137321465,-3.2213114461,2.137640676,165.9157724498
-87.64717021,41.86967445,0,5.2669754,14-54-42-860,1500580482860,0.3369267,-0.18118589,0.106077805,312,0.2351376,-0.009037003,-0.055810094,-3.5008433412,2.1935210149,164.4593712131
-87.64717021,41.86967445,0,5.2669754,14-54-42-960,1500580482961,0.26631686,-0.20814215,0.22355583,309,0.20104913,0.077249415,-0.041961655,-3.4645043869,2.3730181729,163.131568778
-87.64717021,41.86967445,0,5.2669754,14-54-43-061,1500580483061,0.21778628,-0.13614969,0.27739143,305,0.08014162,-0.007971738,0.0006489238,-3.2922173474,2.5196860266,162.1373254613
-87.64717021,41.86967445,0,5.2669754,14-54-43-160,1500580483161,0.2292729,-0.1449137,0.32729813,305,0.17601542,-0.01329806,0.0118342005,-3.3770041141,2.4968456605,161.4815316784
-87.64717019,41.86967447,0,5.264754,14-54-43-261,1500580483262,0.18908376,-0.21473153,0.35266516,305,0.36776304,0.000550377,-0.011068985,-3.4733898227,2.4065479984,160.2120453985
-87.64717019,41.86967447,0,5.264754,14-54-43-361,1500580483361,0.31173953,-0.160222,0.21150959,303,0.30065137,0.079379946,-0.039831128,-3.3649176675,2.3912613947,158.0815454718
-87.64717019,41.86967447,0,5.264754,14-54-43-463,1500580483464,0.31364122,-0.054911744,0.39619946,297,0.26070395,0.06553151,0.005975246,-2.886921606,2.3636243149,156.5301772849
-87.64717019,41.86967447,0,5.264754,14-54-43-561,1500580483562,0.39733037,-0.14635007,0.44798332,293,0.38640517,-0.01968965,-0.06646273,-2.6556676224,2.3630234717,154.662052245
-87.64717019,41.86967447,0,5.264754,14-54-43-662,1500580483663,0.26110002,0.024752058,0.33774972,289,0.27348712,0.011735654,-0.051549036,-2.7742909328,2.6051336141,152.1541570459
-87.64717019,41.86967447,0,5.264754,14-54-43-761,1500580483762,0.34531102,-0.09909082,0.33746418,289,0.040726837,-0.05590864,0.009703672,-2.9765213082,2.6774021381,150.5856724049
-87.64717019,41.86967447,0,5.264754,14-54-43-864,1500580483865,0.2584022,-0.12643246,0.30936572,291,0.07002161,-0.07082234,-0.010536352,-3.2908525902,2.689406409,149.8143528023
-87.64717019,41.86967447,0,5.264754,14-54-43-964,1500580483965,0.23557346,-0.09024875,0.3620485,293,0.089728996,-0.0271465,-0.020123733,-3.5921740694,2.6704667214,149.3477962405
-87.64717019,41.86967447,0,5.264754,14-54-44-066,1500580484066,0.22392955,-0.05775327,0.2939268,293,-0.030645883,-0.0271465,0.0006489238,-3.7885565222,2.7555702381,149.0812002968
-87.64717019,41.86967447,0,5.264754,14-54-44-163,1500580484164,0.18608685,-0.087124646,0.25911835,294,0.035400514,-0.0063738422,-0.0078731915,-3.9741383115,2.7551190187,149.0402464825
-87.64717019,41.86967448,0,5.2636433,14-54-44-264,1500580484265,0.2954653,-0.08347351,0.4326331,294,0.010899431,0.005344067,0.00917104,-3.960229485,2.7808816385,148.8779065463
-87.64717019,41.86967448,0,5.2636433,14-54-44-364,1500580484364,0.25313944,-0.109023646,0.40142345,294,0.06735844,-0.01329806,-0.0062752953,-4.0035862452,2.7336528014,148.7259075165
-87.64717019,41.86967448,0,5.2636433,14-54-44-463,1500580484464,0.22470878,-0.10554312,0.38317496,294,0.06096686,0.02025777,0.005975246,-3.9794854958,2.7521207791,148.3902993415
-87.64717019,41.86967448,0,5.2636433,14-54-44-564,1500580484567,0.3557369,-0.013890851,0.3045277,294,0.07588056,-0.0031780486,-0.009471089,-3.9380125872,2.6952773835,147.9862253502
-87.64717019,41.86967448,0,5.2636433,14-54-44-663,1500580484664,0.29280114,-0.07255443,0.44698963,294,0.09185953,-0.022885442,0.0038447173,-4.0015871342,2.6911801238,147.5433285637
-87.64717019,41.86967448,0,5.2636433,14-54-44-763,1500580484764,0.2697388,-0.047276836,0.22802812,295,0.1211543,0.027181987,-0.008938456,-4.1407138187,2.6053144006,146.9113858013
-87.64717019,41.86967448,0,5.2636433,14-54-44-864,1500580484865,0.26953444,-0.09433448,0.29381913,293,0.26922607,0.02505146,-0.04089639,-4.0318440185,2.6186362577,145.940050939
-87.64717019,41.86967448,0,5.2636433,14-54-44-965,1500580484966,0.23455338,-0.051762134,0.2686393,288,0.17601542,0.006409331,-0.06273431,-3.9020187709,2.8845867485,144.3625231276
-87.64717019,41.86967448,0,5.2636433,14-54-45-067,1500580485069,0.22753346,-0.123608276,0.5480514,285,0.24632287,0.011735654,-0.04036376,-3.9126200783,3.1094811857,143.4036601907
-87.64717019,41.86967448,0,5.2636433,14-54-45-166,1500580485167,0.2743431,0.006933412,0.25006104,284,0.26070395,0.035704102,-0.02172163,-4.0756566938,3.1583078602,141.8557617399
-87.64717016,41.86967445,0,5.2669764,14-54-45-289,1500580485289,0.07116417,-0.06699103,0.27987665,280,0.1573733,0.16247058,0.052846882,-3.6782707384,3.0988179797,140.2528119643
-87.64717016,41.86967445,0,5.2669764,14-54-45-365,1500580485366,0.3436359,0.016126797,0.36324108,279,0.2596387,0.08949996,0.08320692,-3.1906812493,2.7263684046,139.3064619341
-87.64717016,41.86967445,0,5.2669764,14-54-45-466,1500580485467,0.32867926,-0.06012357,0.33249992,282,0.2665629,-0.0436581,0.08906588,-2.9280103165,2.132022632,137.717213518
-87.64717016,41.86967445,0,5.2669764,14-54-45-565,1500580485566,0.29861084,0.09594521,0.23790225,291,0.1642975,-0.08200762,0.09758799,-3.2858001712,1.5194232855,136.1128294027
-87.64717016,41.86967445,0,5.2669764,14-54-45-666,1500580485667,0.3194378,0.013016779,0.47075054,301,0.1525796,-0.061767593,0.06776059,-3.7275134141,0.9243099703,135.2783168899
-87.64717016,41.86967445,0,5.2669764,14-54-45-768,1500580485769,-0.39954498,0.22660822,0.99353784,308,0.30224928,-0.21143724,0.23021342,-4.0891736382,0.4649277752,134.5363534404
-87.64717016,41.86967445,0,5.2669764,14-54-45-874,1500580485875,-0.5271424,0.33599272,-0.71926385,321,-0.027450088,0.040497795,0.3670999,-5.1016979562,-0.8036106559,132.1972595365
-87.64717016,41.86967445,0,5.2669764,14-54-45-969,1500580485970,1.036863,-0.1564304,0.50033313,337,0.14778592,0.059139922,0.08959851,-4.9046610859,-2.3294663254,132.0270922035
-87.64717016,41.86967445,0,5.2669764,14-54-46-068,1500580486081,0.464751,-0.16803232,-0.36331677,343,0.17175436,0.023986194,0.012366833,-4.7182741881,-3.062420542,130.2850114745
-87.64717016,41.86967445,0,5.2669764,14-54-46-168,1500580486170,0.38665676,-0.016508108,0.502886,345,0.04605316,0.036236737,-0.037700597,-4.3757098922,-3.1295015374,129.8564717456
-87.64717018,41.86967443,0,5.269197,14-54-46-292,1500580486294,0.19625588,0.16936453,0.5706866,345,0.14352486,-0.012765429,-0.07232169,-4.1768894888,-2.953266862,129.5860918771
-87.64717018,41.86967443,0,5.269197,14-54-46-376,1500580486377,-0.089389525,0.062208526,0.8622287,342,0.37149146,0.0016156414,-0.01000372,-3.8171011634,-2.479502743,128.5457311231
-87.64717018,41.86967443,0,5.269197,14-54-46-471,1500580486472,0.016463649,-0.10111771,0.43110153,340,0.25857344,-0.064963385,0.042726867,-3.7050117827,-2.4302846133,126.8464210388
-87.64717018,41.86967443,0,5.269197,14-54-46-571,1500580486572,0.6040256,-0.10530725,0.010429567,338,0.25537762,-0.02501597,-0.118660696,-3.8550185317,-2.5207395832,125.2617761702
-87.64717018,41.86967443,0,5.269197,14-54-46-677,1500580486678,0.31324637,0.14634925,0.6545988,332,0.26230186,-0.08520341,-0.098420665,-3.9452218519,-2.0996486025,124.0051716271
-87.64717018,41.86967443,0,5.269197,14-54-46-770,1500580486771,-0.12573878,0.16948463,0.39001957,327,0.16536278,-0.0010475197,0.08001113,-4.015034496,-1.8001774643,122.6522887374
-87.64717018,41.86967443,0,5.269197,14-54-46-875,1500580486876,0.6421001,-0.24693011,-0.19237164,330,-0.1020186,-0.021287546,-0.051549036,-4.2227443907,-2.2705826242,121.9130983447
-87.64717018,41.86967443,0,5.269197,14-54-46-980,1500580486988,0.18731102,-0.08898566,0.9218083,328,-0.035972204,-0.023418074,-0.03557007,-4.2891082162,-2.012920568,122.9271628704
-87.64717018,41.86967443,0,5.269197,14-54-47-072,1500580487073,-0.09573701,0.11973106,-0.12870842,324,-0.18990292,0.07565152,-0.03823323,-4.3463712415,-1.690513441,123.040052237
-87.64717018,41.86967443,0,5.269197,14-54-47-171,1500580487172,0.26152822,-0.07254918,0.15056202,323,-0.3502252,0.019725136,0.009703672,-4.1752186538,-1.4608973155,123.9778645308
-87.64717018,41.86967443,0,5.269197,14-54-47-273,1500580487275,0.7617092,-0.2320718,-0.17487484,322,-0.508417,0.12465368,-0.24436189,-4.2032873162,-1.2454065547,125.8024129638
-87.64717018,41.86967443,0,5.269197,14-54-47-376,1500580487377,-0.016728243,0.09285988,0.5707383,309,-0.32891992,-0.080942355,-0.06699537,-3.8050428913,-0.0133602727,128.6429520358
-87.64717018,41.86967443,0,5.269197,14-54-47-476,1500580487477,0.32805544,0.103888534,-0.08943944,302,-0.5755287,0.06073782,-0.11493227,-3.9975816552,0.6087663831,131.0156094893
-87.64717018,41.86967443,0,5.269197,14-54-47-573,1500580487580,0.09023618,0.11633535,-0.80533403,296,-0.8258658,0.12731685,0.019823683,-3.8082432618,1.2771502858,134.1808147733
-87.64717018,41.86967443,0,5.269197,14-54-47-675,1500580487676,0.31586224,-0.022580523,0.48816448,294,-0.51853704,0.12465368,0.06882585,-2.8874379256,1.3582963482,138.7082739666
-87.64717018,41.86967443,0,5.269197,14-54-47-773,1500580487775,0.5886978,0.021211468,0.10479119,297,-0.38857472,0.08257574,-0.06646273,-2.2469158053,1.0204611046,141.5362454905
-87.64717018,41.86967443,0,5.269197,14-54-47-872,1500580487873,0.121205516,-0.09879719,0.24745822,293,-0.34117046,-0.012765429,0.016627891,-2.0688459435,1.2232926433,143.7797713876
-87.64717018,41.86967443,0,5.269197,14-54-47-971,1500580487972,0.17422819,-0.033740018,0.53338194,293,-0.31294096,0.014398815,0.05444478,-1.8920706159,1.2312484263,145.9667569787
-87.64717018,41.86967443,0,5.269197,14-54-48-071,1500580488072,0.85797554,-0.24483186,0.7914391,313,-0.18084818,-0.026081234,-0.04302692,-2.133393579,0.5894083463,148.1237307186
-87.64717018,41.86967443,0,5.269197,14-54-48-172,1500580488173,-0.41188347,0.10953556,0.084400155,306,-0.29749462,-0.0058412096,0.08214166,-2.0385961028,0.8643989126,149.3441215987
-87.64717018,41.86967443,0,5.269197,14-54-48-275,1500580488275,0.05822349,-0.10373264,0.7936465,315,-0.12651968,-0.16509824,0.17588493,-1.7989371446,0.5133334325,150.8805863129
-87.64717018,41.86967443,0,5.269197,14-54-48-375,1500580488375,0.42055178,-0.12166991,0.52832973,341,-0.16699974,-0.03194019,0.00917104,-2.1861602054,-0.3474232817,152.0330851127
-87.64717018,41.86967443,0,5.269197,14-54-48-480,1500580488480,0.32365426,-0.07777443,-0.34224027,340,-0.33318096,-0.025548603,-0.02917848,-2.5834654793,-0.3282305836,153.1384829279
-87.64717018,41.86967443,0,5.269197,14-54-48-577,1500580488578,0.631268,-0.15917468,0.5994491,339,-0.4887096,-0.1363361,-0.06273431,-2.8039077003,-0.1613824691,155.5629405361
-87.64717018,41.86967443,0,5.269197,14-54-48-676,1500580488677,0.25782648,-0.12848052,0.07291372,334,-0.63518345,0.08257574,-0.036635336,-3.3611819809,0.2972741919,158.7165754797
-87.64717018,41.86967443,0,5.269197,14-54-48-778,1500580488779,0.032638777,-0.05809337,0.2787624,329,-0.58351815,0.14382845,0.07415217,-2.3932940163,0.5577260869,162.477468882
-87.64717018,41.86967443,0,5.269197,14-54-48-878,1500580488880,0.43821198,-0.12888348,0.43453223,334,-0.22292612,-0.045255996,-0.029711112,-1.9804970197,0.3761182938,164.6788115307
-87.64717018,41.86967443,0,5.269197,14-54-48-978,1500580488979,0.19476014,-0.08188587,0.06543492,330,-0.1845766,0.084173635,-0.054212198,-2.1405225889,0.6253290582,166.0600123847
-87.64717018,41.86967443,0,5.269197,14-54-49-079,1500580489080,0.27818128,-0.15075696,0.20289588,325,-0.13717233,0.015996711,0.046455294,-1.7491928769,0.6891674746,166.8601144044
-87.64717018,41.86967443,0,5.269197,14-54-49-187,1500580489188,0.30606407,-0.15262438,0.18583284,328,-0.114269145,-0.01329806,-0.020123733,-1.6620590864,0.6025643579,167.5611786812
-87.64717018,41.86967443,0,5.269197,14-54-49-279,1500580489279,0.11484958,-0.1935205,-0.081430465,327,-0.22931771,0.0388999,0.03100896,-1.6742971846,0.6612783182,168.2799058272
-87.64717018,41.86967443,0,5.269197,14-54-49-377,1500580489378,0.07422609,-0.12249743,0.108866096,328,-0.17339133,0.10760945,0.009703672,-1.5747071568,0.5962604134,169.1188852837
-87.64717018,41.86967443,0,5.269197,14-54-49-479,1500580489479,0.25564766,-0.18822475,-0.059073504,326,-0.40508634,0.09961997,0.010768937,-1.1766340203,0.5397391573,170.6746657729
-87.64717018,41.86967443,0,5.269197,14-54-49-581,1500580489582,0.303305,-0.33752313,0.45808524,316,-0.21813244,-0.029277027,-0.04728798,-0.8307440093,0.6204207135,172.8449174005
-87.64717018,41.86967443,0,5.269197,14-54-49-683,1500580489684,0.14145193,-0.22061814,-0.02068012,313,-0.12651968,0.022388298,-0.04355955,-1.0637709072,0.9165129892,173.8583808696
-87.64717018,41.86967443,0,5.269197,14-54-49-782,1500580489782,0.16627707,-0.18125026,0.09881615,304,-0.056212228,0.012800918,-0.030243745,-0.9906658984,1.21067611,174.3597030943
-87.64717018,41.86967443,0,5.269197,14-54-49-882,1500580489883,0.3418399,-0.2659945,0.24860011,295,-0.09722491,0.04901991,-0.027047953,-0.7669062865,1.304594306,174.8697952818
-87.64717018,41.86967443,0,5.269197,14-54-49-981,1500580489982,0.20879488,-0.26514912,0.019947464,286,-0.084441744,0.06393361,-0.039298493,-0.5811771146,1.5528384919,175.2427645917
-87.64717018,41.86967443,0,5.269197,14-54-50-086,1500580490091,0.27755272,-0.18583862,0.27619028,281,-0.072723836,-0.020754913,-0.05048377,-0.4930979299,1.8009753157,175.9352364905
-87.64717018,41.86967443,0,5.269197,14-54-50-182,1500580490183,0.20998345,-0.13691933,0.2801793,280,-0.17445658,-0.14166242,-0.033972174,-0.4814861814,2.0226459036,176.3984189389
-87.64717018,41.86967443,0,5.269197,14-54-50-282,1500580490282,0.32875666,-0.18446644,0.33033955,292,0.04711842,-0.0037106809,0.021954214,-0.9449140897,2.0664598596,177.5819267975
-87.64717018,41.86967443,0,5.269197,14-54-50-382,1500580490383,0.21933894,-0.15448673,0.11628682,288,0.12754588,0.033040944,0.009703672,-0.776558251,1.9945879134,177.1821148442
-87.64717018,41.86967443,0,5.269197,14-54-50-485,1500580490485,0.300367,-0.18170446,0.17292002,282,0.0007794186,0.02025777,0.0054426137,-0.523363672,1.9135238132,176.695395564
-87.64717018,41.86967443,0,5.269197,14-54-50-585,1500580490586,0.16149774,-0.1010215,0.08875715,283,0.014627856,-0.020754913,0.032606855,-0.5595414232,1.9266586939,176.4790015107
-87.64717018,41.86967443,0,5.269197,14-54-50-685,1500580490686,0.4241543,-0.22052972,0.4394623,287,0.22075653,-0.060169697,-0.027580583,-0.6937012261,1.8006820445,176.0572236691
-87.64717018,41.86967443,0,5.269197,14-54-50-785,1500580490786,0.25319785,-0.23636712,0.20133556,291,0.38267675,-0.026613867,-0.0078731915,-0.9865295785,2.0137406176,174.4406681567
-87.64717018,41.86967443,0,5.269197,14-54-50-886,1500580490889,0.20577444,-0.18640058,-0.014488531,288,0.35817567,0.09642418,-0.06806063,-1.0477513388,2.1621034254,172.1511887469
-87.64717018,41.86967443,0,5.269197,14-54-50-987,1500580490988,0.13202617,-0.18104093,0.056601245,273,0.26709554,0.14862214,-0.09043118,-0.5984208343,2.5159048765,170.0988261843
-87.64717018,41.86967443,0,5.269197,14-54-51-086,1500580491090,0.16629876,-0.2438094,-0.07049625,255,0.15843855,0.16832954,-0.0068079275,0.1942168026,2.9349367687,168.5844639623
-87.64717018,41.86967443,0,5.269197,14-54-51-186,1500580491187,0.2951395,-0.14889985,0.2883637,240,0.16216698,0.10654419,-0.011601618,0.9445111085,2.9713666498,167.797052434
-87.64717018,41.86967443,0,5.269197,14-54-51-286,1500580491287,0.47382337,0.0127419,0.60160327,235,0.3453925,-0.03194019,-0.10108383,1.266925706,3.2049971124,166.7736305492
-87.64717018,41.86967443,0,5.269197,14-54-51-386,1500580491387,0.32012108,-0.3916514,0.288281,243,0.31876087,0.05168307,0.04539003,0.7647169975,3.5548379075,164.9223624162
-87.64717018,41.86967443,0,5.269197,14-54-51-487,1500580491489,0.27526546,0.005543827,-0.011608495,242,0.2777482,-0.06443076,0.03580265,0.6117882615,3.3044301525,162.8386219645
-87.64717018,41.86967443,0,5.269197,14-54-51-587,1500580491588,0.0996783,0.03157762,0.077237524,247,0.07534793,-0.06123496,0.058173202,0.3341074278,3.1623993569,161.8005971352
-87.64717018,41.86967443,0,5.269197,14-54-51-691,1500580491695,0.17352311,-0.1709206,0.42309707,248,0.041259468,-0.10171501,0.13167645,0.1596831927,2.6509584204,161.3003814012
-87.64717018,41.86967443,0,5.269197,14-54-51-789,1500580491790,0.4706224,-0.019778071,0.20010857,249,0.031672087,0.012800918,0.12635013,0.05909481,1.7055563991,161.1439427484
-87.64717018,41.86967443,0,5.269197,14-54-51-888,1500580491889,0.17098372,-0.06904525,0.083225824,247,-0.016264811,0.043693587,0.046455294,0.0807021268,1.1412235449,160.9796903593
-87.64717018,41.86967443,0,5.269197,14-54-51-990,1500580491995,0.42054352,-0.27588636,0.52977854,242,0.008768902,-0.056973904,-0.109605946,0.17655384,1.1099052065,161.2480348314
-87.64717018,41.86967443,0,5.269197,14-54-52-090,1500580492093,0.09355443,-0.14993367,0.116295904,255,0.03433525,0.043160953,-0.046755347,-0.1058850676,1.7238203249,161.1625891649
-87.64717018,41.86967443,0,5.269197,14-54-52-191,1500580492192,0.20862558,-0.14730702,0.24716783,254,-0.043429054,-0.029277027,0.042726867,-0.1111169992,1.8594065169,161.0427193449
-87.64717018,41.86967443,0,5.269197,14-54-52-290,1500580492290,0.20835133,-0.1724537,0.15529032,262,-0.07964805,-0.0106349,0.037400547,-0.300966843,1.6003521692,161.4487057892
-87.64717018,41.86967443,0,5.269197,14-54-52-390,1500580492391,0.29139364,-0.17031477,0.2896386,264,-0.0034816393,-0.009569635,-0.015330043,-0.3314026195,1.480393877,161.7243175826
-87.64717018,41.86967443,0,5.269197,14-54-52-491,1500580492492,0.27612978,-0.22058891,0.20157489,267,0.027943663,0.009605125,-0.025982687,-0.4348208349,1.6439083923,161.7343443003
-87.64717018,41.86967443,0,5.269197,14-54-52-592,1500580492593,0.23661955,-0.12090328,0.22679208,266,-0.021058502,0.008007228,0.0027794528,-0.4510395993,1.7195245628,161.7782487563
-87.64717018,41.86967443,0,5.269197,14-54-52-691,1500580492694,0.2994223,-0.1385418,0.3989222,266,0.02208471,-0.050049685,-0.024917422,-0.4242235029,1.717815308,161.817918495
-87.64717018,41.86967443,0,5.269197,14-54-52-792,1500580492794,0.1742307,-0.091596834,0.27630624,268,0.05404264,0.00853986,-0.015862675,-0.5213248072,1.7522584579,161.7855433983
-87.64717018,41.86967443,0,5.269197,14-54-52-892,1500580492893,0.2830686,-0.10562548,0.262562,266,-0.023721663,-0.018624384,0.03793318,-0.4647311404,1.8339104879,161.4462332607
-87.64717018,41.86967443,0,5.269197,14-54-52-992,1500580492993,0.31330806,-0.15875345,0.27021888,273,-0.050353274,-0.0271465,-0.005742663,-0.627761566,1.616919967,161.7487969806
-87.64717018,41.86967443,0,5.269197,14-54-53-091,1500580493096,0.2029638,0.013420946,0.22689536,272,0.016758386,0.045291483,-0.0078731915,-0.6103913811,1.7008398333,161.7657221893
-87.64717018,41.86967443,0,5.269197,14-54-53-192,1500580493193,0.3118455,-0.100659095,0.18641086,262,-0.042363793,0.01546408,-0.005210031,-0.307247282,1.6892263773,161.7533868677
-87.64717018,41.86967443,0,5.269197,14-54-53-292,1500580493293,0.3511208,-0.27803668,0.35125223,258,0.016225753,-0.010102267,0.016095258,-0.1935576893,1.695704705,161.862833819
-87.64717018,41.86967443,0,5.269197,14-54-53-394,1500580493395,0.2892808,-0.2014194,0.30255413,261,0.094522685,0.0010830092,-0.039298493,-0.263219349,1.6327012258,161.7813496622
-87.64717018,41.86967443,0,5.269197,14-54-53-496,1500580493498,0.25523835,-0.15201278,0.15478899,256,0.026345767,0.0042788023,-0.07498485,-0.1953847649,1.9552370591,161.3005316653
-87.64717018,41.86967443,0,5.269197,14-54-53-592,1500580493594,0.10173248,-0.047588304,0.10367991,255,-0.008807962,0.06393361,0.008638408,-0.1688834975,2.3259662803,161.1401861444
-87.64717018,41.86967443,0,5.269197,14-54-53-692,1500580493693,0.2973108,-0.16150448,0.27227214,252,0.010899431,-0.07242024,-0.025982687,-0.0276895886,2.2777955174,161.1628487121
-87.64717018,41.86967443,0,5.269197,14-54-53-792,1500580493794,0.4095132,-0.12938683,0.17379782,254,0.001844683,-0.007439106,0.007573142,-0.1153551449,2.2434138393,161.103453387
-87.64717018,41.86967443,0,5.269197,14-54-53-894,1500580493895,0.17243576,-0.060814608,0.2748815,258,0.112632185,-0.030874927,-0.04995114,-0.2660265834,2.2811041038,160.9442143567
-87.64717018,41.86967443,0,5.269197,14-54-53-994,1500580493996,0.080433965,-0.1887939,0.028427651,260,-0.032243777,0.202418,0.0022468206,-0.3949144141,2.4252531118,160.5226141
-87.64717018,41.86967443,0,5.269197,14-54-54-094,1500580494095,0.080433965,-0.1887939,0.028427651,260,-0.032243777,0.202418,0.0022468206,-0.3949144141,2.4252531118,160.5226141
-87.64717018,41.86967443,0,5.269197,14-54-54-195,1500580494196,0.080433965,-0.1887939,0.028427651,260,-0.032243777,0.202418,0.0022468206,-0.3949144141,2.4252531118,160.5226141
-87.64717018,41.86967443,0,5.269197,14-54-54-298,1500580494298,0.080433965,-0.1887939,0.028427651,260,-0.032243777,0.202418,0.0022468206,-0.3949144141,2.4252531118,160.5226141
