Longitude,Latitude,Speed,Distance,Time,Time in epoch, Acc X,Acc Y,Acc Z,Heading,gyro_x,gyro_y,gyro_z,pitch_deg,roll_deg,azimuth_deg
-87.64722304,41.86966484,0.0,222.45146,21-14-05-260,1502158445261,-0.06312163,-0.36858478,0.190277,311.0,7.5586955E-5,0.023936803,0.009026619,-1.5686635065806178,1.698159731097534,178.04299188720756
-87.64722304,41.86966484,0.0,222.45146,21-14-05-319,1502158445319,-0.06312163,-0.36858478,0.190277,311.0,7.5586955E-5,0.023936803,0.009026619,-1.5686635065806178,1.698159731097534,178.04299188720756
-87.64722304,41.86966484,0.0,222.45146,21-14-05-320,1502158445320,-0.06312163,-0.36858478,0.190277,311.0,7.5586955E-5,0.023936803,0.009026619,-1.5686635065806178,1.698159731097534,178.04299188720756
-87.64722304,41.86966484,0.0,222.45146,21-14-05-360,1502158445361,-0.06312163,-0.36858478,0.190277,311.0,7.5586955E-5,0.023936803,0.009026619,-1.5686635065806178,1.698159731097534,178.04299188720756
-87.64722714,41.86966644,0.0,0.0,21-14-05-419,1502158445419,-0.017946584,-0.29837832,0.26860225,324.0,0.009662967,-0.010684293,-0.0042891866,-2.386909070090744,1.6828607476869402,178.85534726633227
-87.64722714,41.86966644,0.0,0.0,21-14-05-420,1502158445420,-0.017946584,-0.29837832,0.26860225,324.0,0.009662967,-0.010684293,-0.0042891866,-2.386909070090744,1.6828607476869402,178.85534726633227
-87.64722714,41.86966644,0.0,0.0,21-14-05-467,1502158445467,0.008577441,-0.25862208,0.3166653,325.0,0.016587187,-0.013880086,0.0063634575,-2.4058726634344616,1.6813316390865036,179.48500874553736
-87.64722879,41.86966796,0.0,0.21740954,21-14-05-519,1502158445519,0.008577441,-0.25862208,0.3166653,325.0,0.016587187,-0.013880086,0.0063634575,-2.4058726634344616,1.6813316390865036,179.48500874553736
-87.64722879,41.86966796,0.0,0.21740954,21-14-05-521,1502158445521,0.008577441,-0.25862208,0.3166653,325.0,0.016587187,-0.013880086,0.0063634575,-2.4058726634344616,1.6813316390865036,179.48500874553736
-87.64722879,41.86966796,0.0,0.21740954,21-14-05-561,1502158445561,-0.046570487,-0.35185164,0.13684914,328.0,0.0149892885,0.005827307,-0.003223922,-2.504601553783115,1.6454435840314352,180.88230516764756
-87.64722879,41.86966796,0.0,0.21740954,21-14-05-619,1502158445620,-0.020151617,-0.36479697,0.27927718,328.0,0.022978771,-0.0016295447,-0.0101481415,-2.4907469419385673,1.6571353737866161,181.54341283779144
-87.64722879,41.86966796,0.0,0.21740954,21-14-05-621,1502158445621,-0.020151617,-0.36479697,0.27927718,328.0,0.022978771,-0.0016295447,-0.0101481415,-2.4907469419385673,1.6571353737866161,181.54341283779144
-87.64722879,41.86966796,0.0,0.21740954,21-14-05-662,1502158445662,-0.066809334,-0.37230396,0.261231,328.0,6.082192E-4,0.0015662487,0.0037002969,-2.4912323122564612,1.6648339574765725,181.90391022218472
-87.64722879,41.86966796,0.0,0.21740954,21-14-05-720,1502158445721,-0.008228011,-0.32019645,0.1272369,329.0,0.0064671733,-5.642802E-4,-0.0026912899,-2.4906444891010167,1.6519253268320715,182.14717423966388
-87.64722879,41.86966796,0.0,0.21740954,21-14-05-722,1502158445722,-0.008228011,-0.32019645,0.1272369,329.0,0.0064671733,-5.642802E-4,-0.0026912899,-2.4906444891010167,1.6519253268320715,182.14717423966388
-87.64722879,41.86966796,0.0,0.21740954,21-14-05-762,1502158445762,-0.014007246,-0.3316367,0.09495553,328.0,0.0054019094,0.0063599385,-0.0016260255,-2.491136689608081,1.656429836589695,182.13449740856436
-87.64722879,41.86966796,0.0,0.21740954,21-14-05-821,1502158445821,-0.038194153,-0.34237102,0.1523075,328.0,0.0011408514,0.009555732,0.0010371356,-2.472520582138388,1.6558521519963,182.11365167121747
-87.64722879,41.86966796,0.0,0.21740954,21-14-05-824,1502158445828,-0.038194153,-0.34237102,0.1523075,328.0,0.0011408514,0.009555732,0.0010371356,-2.472520582138388,1.6558521519963,182.11365167121747
-87.64722879,41.86966796,0.0,0.21740954,21-14-05-863,1502158445864,-6.25048E-4,-0.34995583,0.20205088,328.0,-0.019099174,0.008490467,-0.005354451,-2.4511566041882342,1.650780096207331,182.11388389764926
-87.64722879,41.86966796,0.0,0.21740954,21-14-05-922,1502158445923,-0.04586825,-0.36917037,0.22431569,328.0,0.0038040127,0.023936803,-0.0037565543,-2.4251440421776524,1.664889879650402,182.15218759851467
-87.64722879,41.86966796,0.0,0.21740954,21-14-05-923,1502158445924,-0.04586825,-0.36917037,0.22431569,328.0,0.0038040127,0.023936803,-0.0037565543,-2.4251440421776524,1.664889879650402,182.15218759851467
-87.64722879,41.86966796,0.0,0.21740954,21-14-05-963,1502158445964,0.0014861638,-0.31434524,0.29746693,327.0,0.009662967,0.012751524,0.0021024002,-2.376480651888604,1.665800109079012,182.13878676736311
-87.64722879,41.86966796,0.0,0.21740954,21-14-06-022,1502158446024,0.052631218,-0.32055908,0.2713778,327.0,0.002206116,-0.004292706,-0.0021586576,-2.327518227379956,1.6575248012910127,182.10680782166912
-87.64722879,41.86966796,0.0,0.21740954,21-14-06-023,1502158446024,0.052631218,-0.32055908,0.2713778,327.0,0.002206116,-0.004292706,-0.0021586576,-2.327518227379956,1.6575248012910127,182.10680782166912
-87.64722879,41.86966796,0.0,0.21740954,21-14-06-063,1502158446064,0.0031035899,-0.33821198,0.23104204,327.0,6.082192E-4,-0.002694809,-0.008017613,-2.3339541865688123,1.66123231334986,182.10048306649767
-87.64722879,41.86966796,0.0,0.21740954,21-14-06-122,1502158446123,-0.07537156,-0.33410046,0.13324758,326.0,0.016587187,0.020208377,-0.004821819,-2.3302628962092435,1.6827904180828304,182.08413159362468
-87.64722879,41.86966796,0.0,0.21740954,21-14-06-124,1502158446124,-0.07537156,-0.33410046,0.13324758,326.0,0.016587187,0.020208377,-0.004821819,-2.3302628962092435,1.6827904180828304,182.08413159362468
-87.64722879,41.86966796,0.0,0.21740954,21-14-06-163,1502158446164,-0.039663445,-0.28368273,0.15817477,325.0,0.011260863,0.016479952,-0.0037565543,-2.2827066368959716,1.6915970932439155,182.04536343989568
-87.64722879,41.86966796,0.0,0.21740954,21-14-06-224,1502158446225,0.02391903,-0.3104774,0.30768913,324.0,-0.01590338,0.008490467,0.0015697678,-2.211443644747232,1.7041737126617305,182.0284792122674
-87.64722879,41.86966796,0.0,0.21740954,21-14-06-225,1502158446226,0.02391903,-0.3104774,0.30768913,324.0,-0.01590338,0.008490467,0.0015697678,-2.211443644747232,1.7041737126617305,182.0284792122674
-87.64722879,41.86966796,0.0,0.21740954,21-14-06-264,1502158446265,0.0079846345,-0.36041984,0.32735264,324.0,-0.012174955,0.02127364,0.012222412,-2.1754154640924726,1.6948740899416406,182.06204276184886
-87.64722879,41.86966796,0.0,0.21740954,21-14-06-324,1502158446325,0.06803249,-0.35055718,0.29022643,324.0,0.0149892885,-0.0010969124,-0.0069523477,-2.14611694076088,1.6737153378317047,182.08671340513095
-87.64722879,41.86966796,0.0,0.21740954,21-14-06-322,1502158446323,0.06803249,-0.35055718,0.29022643,324.0,0.0149892885,-0.0010969124,-0.0069523477,-2.14611694076088,1.6737153378317047,182.08671340513095
-87.64722879,41.86966796,0.0,0.21740954,21-14-06-363,1502158446364,8.9261675E-4,-0.30366156,0.2699704,324.0,0.038425107,-0.014945351,-0.0064197155,-2.156314840078532,1.6844690437930667,182.04651091167625
-87.64723098,41.86966989,0.0,0.4984658,21-14-06-435,1502158446436,-0.0015744133,-0.2666347,0.23631248,324.0,-0.0015223097,-0.009619028,-0.005354451,-2.165439545922846,1.6952097297063233,181.94367558353252
-87.64723098,41.86966989,0.0,0.4984658,21-14-06-434,1502158446438,-9.710137E-4,-0.26313353,0.2957148,324.0,-0.0015223097,-0.009619028,-0.005354451,-2.1641102203556324,1.7026394814194163,181.93617603582385
-87.64723098,41.86966989,0.0,0.4984658,21-14-06-463,1502158446464,-0.025585407,-0.30632108,0.2926946,324.0,0.004336645,-0.008021131,-0.00748498,-2.175336703473606,1.7103809672350967,181.93778796046797
-87.64723098,41.86966989,0.0,0.4984658,21-14-06-522,1502158446523,0.0020743185,-0.2927691,0.28455365,324.0,0.01765245,0.0015662487,0.004232929,-2.1850528610113606,1.7153326409399445,181.9177618458215
-87.64723098,41.86966989,0.0,0.4984658,21-14-06-527,1502158446527,0.0020743185,-0.2927691,0.28455365,324.0,0.01765245,0.0015662487,0.004232929,-2.1850528610113606,1.7153326409399445,181.9177618458215
-87.64723098,41.86966989,0.0,0.4984658,21-14-06-563,1502158446563,0.013561939,-0.28774303,0.26372233,324.0,0.011260863,-0.0016295447,0.0010371356,-2.1828110648597154,1.7016708752177439,181.8759884088577
-87.64723098,41.86966989,0.0,0.4984658,21-14-06-625,1502158446626,-0.024797453,-0.35977158,0.29454938,324.0,-0.009511793,-0.004825338,5.045034E-4,-2.2106199666220108,1.7003843450545484,181.86900795552594
-87.64723098,41.86966989,0.0,0.4984658,21-14-06-623,1502158446626,-0.024797453,-0.35977158,0.29454938,324.0,-0.009511793,-0.004825338,5.045034E-4,-2.2106199666220108,1.7003843450545484,181.86900795552594
-87.64723098,41.86966989,0.0,0.4984658,21-14-06-664,1502158446664,-0.008086709,-0.3454402,0.38622665,324.0,0.018717714,-0.0037600736,-0.0010933933,-2.220432173694969,1.6982913189607627,181.88285957916273
-87.64723098,41.86966989,0.0,0.4984658,21-14-06-722,1502158446722,0.012363941,-0.29420337,0.32347232,325.0,0.021380875,0.0015662487,-0.0016260255,-2.213989811203766,1.682752425155572,181.80894327196486
-87.64723098,41.86966989,0.0,0.4984658,21-14-06-725,1502158446726,0.012363941,-0.29420337,0.32347232,325.0,0.021380875,0.0015662487,-0.0016260255,-2.213989811203766,1.682752425155572,181.80894327196486
-87.64723098,41.86966989,0.0,0.4984658,21-14-06-764,1502158446765,0.050944928,-0.29323718,0.34375948,325.0,0.0038040127,-0.020271672,0.0052981935,-2.2072537505782526,1.6779681978070955,181.76812606148488
-87.64723098,41.86966989,0.0,0.4984658,21-14-06-823,1502158446823,0.0220797,-0.35549584,0.36981064,326.0,-0.016968645,-0.023467464,0.010091883,-2.2615266471665856,1.6431630479005914,181.78287927009208
-87.64723098,41.86966989,0.0,0.4984658,21-14-06-824,1502158446825,0.0220797,-0.35549584,0.36981064,326.0,-0.016968645,-0.023467464,0.010091883,-2.2615266471665856,1.6431630479005914,181.78287927009208
-87.64723098,41.86966989,0.0,0.4984658,21-14-06-865,1502158446865,0.006583665,-0.349081,0.33712137,327.0,0.0064671733,-0.013880086,-0.0021586576,-2.3076807967093003,1.6171407742147834,181.81682531026706
-87.64723098,41.86966989,0.0,0.4984658,21-14-06-924,1502158446925,-0.022281125,-0.33887866,0.269832,327.0,0.011793496,-0.0224022,-0.011213406,-2.367692973191148,1.6263600354904195,181.78910840261514
-87.64723098,41.86966989,0.0,0.4984658,21-14-06-925,1502158446926,-0.022281125,-0.33887866,0.269832,327.0,0.011793496,-0.0224022,-0.011213406,-2.367692973191148,1.6263600354904195,181.78910840261514
-87.64723098,41.86966989,0.0,0.4984658,21-14-06-965,1502158446966,-0.06843591,-0.3199972,0.21049725,328.0,0.0016734836,-0.009619028,0.004232929,-2.4087199985447105,1.6377632497531676,181.76838560867333
-87.64723098,41.86966989,0.0,0.4984658,21-14-07-024,1502158447024,0.0080655385,-0.3506382,0.31164157,328.0,-0.010044426,-0.01228219,-2.8128852E-5,-2.4418658393697243,1.621720949661806,181.7910345159611
-87.64723098,41.86966989,0.0,0.4984658,21-14-07-027,1502158447027,0.0080655385,-0.3506382,0.31164157,328.0,-0.010044426,-0.01228219,-2.8128852E-5,-2.4418658393697243,1.621720949661806,181.7910345159611
-87.64723098,41.86966989,0.0,0.4984658,21-14-07-066,1502158447066,-0.05600522,-0.3202827,0.27788413,329.0,0.0054019094,-0.0069558667,0.0031676646,-2.4653422667641163,1.6190889789538236,181.81757663107575
-87.64723098,41.86966989,0.0,0.4984658,21-14-07-124,1502158447125,-0.05307292,-0.35699105,0.11312608,329.0,-0.024958128,0.005294674,0.010091883,-2.4781915601402025,1.6056346802276622,181.89224425908233
-87.64723098,41.86966989,0.0,0.4984658,21-14-07-126,1502158447126,-0.05307292,-0.35699105,0.11312608,329.0,-0.024958128,0.005294674,0.010091883,-2.4781915601402025,1.6056346802276622,181.89224425908233
-87.64723098,41.86966989,0.0,0.4984658,21-14-07-166,1502158447167,0.0052525355,-0.3274508,0.22930351,329.0,-0.034012876,0.015414686,0.011157148,-2.4504626996572436,1.5815087445318847,182.0835578577344
-87.64723098,41.86966989,0.0,0.4984658,21-14-07-226,1502158447226,0.0328738,-0.38244742,0.2641256,330.0,-0.02069707,-0.0058906022,-0.010680774,-2.4142539458763017,1.5558105846665349,182.40741810741972
-87.64723098,41.86966989,0.0,0.4984658,21-14-07-227,1502158447227,0.0328738,-0.38244742,0.2641256,330.0,-0.02069707,-0.0058906022,-0.010680774,-2.4142539458763017,1.5558105846665349,182.40741810741972
-87.64723098,41.86966989,0.0,0.4984658,21-14-07-267,1502158447267,-0.04834941,-0.3655451,0.26600295,330.0,-0.019631807,0.010620996,-0.0016260255,-2.424501577508848,1.5758004139330464,182.55769592953834
-87.64723098,41.86966989,0.0,0.4984658,21-14-07-325,1502158447325,0.030251313,-0.3165594,0.2392496,329.0,0.00806507,0.023936803,0.009026619,-2.3852343930836217,1.5623444076595925,182.61422257510935
-87.64723098,41.86966989,0.0,0.4984658,21-14-07-327,1502158447327,0.030251313,-0.3165594,0.2392496,329.0,0.00806507,0.023936803,0.009026619,-2.3852343930836217,1.5623444076595925,182.61422257510935
-87.64723098,41.86966989,0.0,0.4984658,21-14-07-367,1502158447368,0.13968971,-0.26739642,0.31213444,329.0,0.0032713804,0.002098881,0.00689609,-2.3358066619377666,1.5372348180016273,182.6090726124752
-87.64723464,41.86966999,0.0,0.73699576,21-14-07-435,1502158447436,0.017485667,-0.34046307,0.24371363,330.0,-0.008979161,-0.025065362,5.045034E-4,-2.358922369966617,1.5138165539368866,182.59905955515194
-87.64723464,41.86966999,0.0,0.73699576,21-14-07-432,1502158447436,0.017485667,-0.34046307,0.24371363,330.0,-0.008979161,-0.025065362,5.045034E-4,-2.358922369966617,1.5138165539368866,182.59905955515194
-87.64723464,41.86966999,0.0,0.73699576,21-14-07-468,1502158447469,-0.02535716,-0.35632005,0.22464667,331.0,-0.009511793,-0.0389138,-0.008550244,-2.412144911526649,1.5098863136780731,182.62049268876743
-87.64723464,41.86966999,0.0,0.73699576,21-14-07-527,1502158447528,-0.14933185,-0.29811156,0.22539206,331.0,-0.026556024,-0.013880086,-0.003223922,-2.5168564072579986,1.5346159740634564,182.68166386297406
-87.64723464,41.86966999,0.0,0.73699576,21-14-07-530,1502158447531,-0.14933185,-0.29811156,0.22539206,331.0,-0.026556024,-0.013880086,-0.003223922,-2.5168564072579986,1.5346159740634564,182.68166386297406
-87.64723464,41.86966999,0.0,0.73699576,21-14-07-569,1502158447570,-0.15732065,-0.2375355,0.31818837,331.0,-0.021229703,0.015414686,0.0037002969,-2.539065834561353,1.5466351860119747,182.74828552813838
-87.64723464,41.86966999,0.0,0.73699576,21-14-07-627,1502158447629,-0.043365266,-0.24868861,0.33863264,331.0,0.006999806,0.036187343,0.032995068,-2.4519393011784354,1.506993621842867,182.78884319142992
-87.64723464,41.86966999,0.0,0.73699576,21-14-07-631,1502158447631,-0.043365266,-0.24868861,0.33863264,331.0,0.006999806,0.036187343,0.032995068,-2.4519393011784354,1.506993621842867,182.78884319142992
-87.64723464,41.86966999,0.0,0.73699576,21-14-07-671,1502158447672,0.12703888,-0.2757671,0.26153535,332.0,-0.012707587,0.0122188935,0.027136113,-2.368421028667989,1.429637140459124,182.77933556810527
-87.64723464,41.86966999,0.0,0.73699576,21-14-07-728,1502158447729,0.133995,-0.3070719,0.36912274,332.0,0.025641933,-0.026663259,-0.029855534,-2.3348427514911485,1.3873341503912384,182.8078857588359
-87.64723464,41.86966999,0.0,0.73699576,21-14-07-731,1502158447732,0.133995,-0.3070719,0.36912274,332.0,0.025641933,-0.026663259,-0.029855534,-2.3348427514911485,1.3873341503912384,182.8078857588359
-87.64723464,41.86966999,0.0,0.73699576,21-14-07-772,1502158447773,-0.054844655,-0.33650488,0.3127618,332.0,0.033098783,-0.015477982,-0.019735523,-2.3922037473579736,1.4441589764082172,182.75294371715233
-87.64723464,41.86966999,0.0,0.73699576,21-14-07-829,1502158447830,-0.111589536,-0.22843511,0.2522286,331.0,0.03203352,0.028730491,0.012222412,-2.3923473947739553,1.4759439020411063,182.62459080226944
-87.64723464,41.86966999,0.0,0.73699576,21-14-07-832,1502158447832,-0.111589536,-0.22843511,0.2522286,331.0,0.03203352,0.028730491,0.012222412,-2.3923473947739553,1.4759439020411063,182.62459080226944
-87.64723464,41.86966999,0.0,0.73699576,21-14-07-869,1502158447870,-0.09502893,-0.25677884,0.21809006,331.0,0.018717714,0.058025263,0.012222412,-2.327449925488256,1.4515656762328615,182.55015540069465
-87.64723464,41.86966999,0.0,0.73699576,21-14-07-929,1502158447930,0.00277089,-0.3711091,0.2721545,328.0,0.016587187,0.07666739,0.025005586,-2.068001988214148,1.3923670393141858,182.4607209037025
-87.64723464,41.86966999,0.0,0.73699576,21-14-07-931,1502158447932,0.00277089,-0.3711091,0.2721545,328.0,0.016587187,0.07666739,0.025005586,-2.068001988214148,1.3923670393141858,182.4607209037025
-87.64723464,41.86966999,0.0,0.73699576,21-14-07-970,1502158447971,0.005802996,-0.31137034,0.2806859,327.0,-0.0036528385,0.08465687,0.039386656,-1.881085110396875,1.3243907555383974,182.4257366747737
-87.64723464,41.86966999,0.0,0.73699576,21-14-08-029,1502158448030,0.05080116,-0.31069607,0.39037132,326.0,-0.0041854708,0.055894736,0.022875056,-1.6285466565201758,1.1960238601120605,182.41224022097376
-87.64723464,41.86966999,0.0,0.73699576,21-14-08-032,1502158448032,0.05080116,-0.31069607,0.39037132,326.0,-0.0041854708,0.055894736,0.022875056,-1.6285466565201758,1.1960238601120605,182.41224022097376
-87.64723464,41.86966999,0.0,0.73699576,21-14-08-068,1502158448069,0.048896506,-0.36624345,0.39676777,325.0,0.019250346,0.048437882,0.0037002969,-1.4938052736075127,1.142046262483625,182.41527282496523
-87.64723464,41.86966999,0.0,0.73699576,21-14-08-131,1502158448132,-0.034337617,-0.35586637,0.20964782,321.0,0.026174566,0.11608218,-0.0037565543,-1.2774297898999747,1.1300999414601551,182.3298408188267
-87.64723464,41.86966999,0.0,0.73699576,21-14-08-133,1502158448135,-0.034337617,-0.35586637,0.20964782,321.0,0.021380875,0.12247376,-0.0042891866,-1.2774297898999747,1.1300999414601551,182.3298408188267
-87.64723464,41.86966999,0.0,0.73699576,21-14-08-174,1502158448175,-0.043759566,-0.3304959,0.22456422,314.0,-0.010577058,0.1347243,-0.008017613,-1.0083741243411863,1.1341344488255172,182.27254919206865
-87.64723464,41.86966999,0.0,0.73699576,21-14-08-231,1502158448232,0.0011910626,-0.3311744,0.23980837,296.0,-0.01110969,0.13845272,-0.018670257,-0.5238162254324165,1.1653438242991268,182.2881630045113
-87.64723464,41.86966999,0.0,0.73699576,21-14-08-233,1502158448234,0.0011910626,-0.3311744,0.23980837,296.0,-0.01110969,0.13845272,-0.018670257,-0.5238162254324165,1.1653438242991268,182.2881630045113
-87.64723464,41.86966999,0.0,0.73699576,21-14-08-268,1502158448269,-0.0907635,-0.37719834,0.17000611,280.0,-4.5704527E-4,0.24497917,-0.025061844,-0.16112096086942734,1.209275494318943,182.30245176025497
-87.64723464,41.86966999,0.0,0.73699576,21-14-08-329,1502158448330,-0.06828058,-0.25305405,0.34546384,250.0,0.0016734836,0.13845272,-0.020268153,0.5405252693806477,1.2955937175022716,182.27886028686174
-87.64723464,41.86966999,0.0,0.73699576,21-14-08-333,1502158448334,-0.06828058,-0.25305405,0.34546384,250.0,-0.0015223097,0.13578957,-0.017072361,0.5405252693806477,1.2955937175022716,182.27886028686174
-87.64723464,41.86966999,0.0,0.73699576,21-14-08-370,1502158448370,-0.018568218,-0.32224566,0.38688466,239.0,-0.020164438,0.0867874,-0.013876567,0.8606379330066039,1.335407850669628,182.27250821093364
-87.64723713,41.8696701,0.0,0.9236371,21-14-08-430,1502158448430,-0.015475393,-0.3288364,0.31861392,231.0,-0.0228276,0.08252635,0.01435294,1.1895560978548816,1.3562370461521107,182.3415477630641
-87.64723713,41.8696701,0.0,0.9236371,21-14-08-432,1502158448435,-0.015475393,-0.3288364,0.31861392,231.0,-0.0228276,0.08252635,0.01435294,1.1895560978548816,1.3562370461521107,182.3415477630641
-87.64723713,41.8696701,0.0,0.9236371,21-14-08-470,1502158448471,0.09301557,-0.32796064,0.40490028,226.0,-0.01590338,0.009555732,0.015950838,1.376632417900592,1.3202714044169392,182.38090331306174
-87.64723713,41.8696701,0.0,0.9236371,21-14-08-531,1502158448532,0.035260305,-0.26231042,0.40272406,224.0,-0.008446529,-0.041044332,0.027668746,1.3838796754967986,1.2445166023935643,182.45095373318938
-87.64723713,41.8696701,0.0,0.9236371,21-14-08-533,1502158448536,0.035260305,-0.26231042,0.40272406,224.0,0.010195599,-0.07832859,0.028734012,1.3838796754967986,1.2445166023935643,182.45095373318938
-87.64723713,41.8696701,0.0,0.9236371,21-14-08-571,1502158448572,0.08746061,-0.2634985,0.49672318,225.0,0.025641933,-0.13159181,0.025005586,1.279745757637138,1.1766268699211648,182.4682614325462
-87.64723713,41.8696701,0.0,0.9236371,21-14-08-631,1502158448631,-0.014581515,-0.28087628,0.2991428,239.0,0.013924025,-0.21308453,-0.0037565543,0.7303599719948384,1.1207507998685828,182.4016807485169
-87.64723713,41.8696701,0.0,0.9236371,21-14-08-638,1502158448639,-0.063454725,-0.25381047,0.21248406,249.0,0.0091303345,-0.15662552,0.020211896,0.4883405430484875,1.1252501869843288,182.3829113886777
-87.64723713,41.8696701,0.0,0.9236371,21-14-08-692,1502158448693,-0.19257642,-0.44590688,0.0691127,263.0,0.012326128,-0.01973904,0.027136113,0.17002415247317865,1.0818292870483825,182.36069961349682
-87.64723713,41.8696701,0.0,0.9236371,21-14-08-731,1502158448732,-0.11918086,-0.38415638,0.27605268,265.0,-0.03294761,0.03299155,0.042049818,0.1350978467501862,1.0195920697226974,182.3412062536056
-87.64723713,41.8696701,0.0,0.9236371,21-14-08-734,1502158448735,-0.11918086,-0.38415638,0.27605268,265.0,-0.03294761,0.03299155,0.042049818,0.1350978467501862,1.0195920697226974,182.3412062536056
-87.64723713,41.8696701,0.0,0.9236371,21-14-08-771,1502158448771,-0.016669145,-0.24804153,0.36111334,262.0,-0.042002358,0.014882055,0.03139717,0.17996041018889436,0.9349436143480254,182.40677606963774
-87.64723713,41.8696701,0.0,0.9236371,21-14-08-831,1502158448832,0.0560256,-0.25740233,0.40497163,257.0,-0.002587574,-0.021869568,0.015418205,0.2280657526784115,0.8419977597922572,182.50316369920495
-87.64723713,41.8696701,0.0,0.9236371,21-14-08-838,1502158448839,0.024037268,-0.28133285,0.37161112,258.0,7.5586955E-5,-0.025597995,0.0063634575,0.21472970160225582,0.8190842893958628,182.5026309444497
-87.64723713,41.8696701,0.0,0.9236371,21-14-08-871,1502158448871,0.009704649,-0.3123709,0.3498644,259.0,0.019782979,-0.021869568,0.004232929,0.1886091905862759,0.8044989540318294,182.50560890692782
-87.64723713,41.8696701,0.0,0.9236371,21-14-08-932,1502158448932,0.048835106,-0.2854749,0.4797084,258.0,0.062393554,-0.01973904,-0.02186605,0.19853009371657232,0.7967566144425026,182.44240233634852
-87.64723713,41.8696701,0.0,0.9236371,21-14-08-935,1502158448937,0.048835106,-0.2854749,0.4797084,258.0,0.09222096,0.007957836,-0.014941832,0.19853009371657232,0.7967566144425026,182.44240233634852
-87.64723713,41.8696701,0.0,0.9236371,21-14-08-971,1502158448972,-0.062498987,-0.27945977,0.35763282,260.0,0.0730462,0.015414686,-0.008017613,0.18719532808787004,0.8394801413920199,182.286865268569
-87.64723713,41.8696701,0.0,0.9236371,21-14-09-032,1502158449033,-0.06288784,-0.26722348,0.18823071,261.0,0.01765245,0.016479952,-0.01227867,0.16562548396726398,0.8743581288627198,182.05713868602479
-87.64723713,41.8696701,0.0,0.9236371,21-14-09-036,1502158449037,-0.06288784,-0.26722348,0.18823071,261.0,0.01765245,0.016479952,-0.01227867,0.16562548396726398,0.8743581288627198,182.05713868602479
-87.64723713,41.8696701,0.0,0.9236371,21-14-09-073,1502158449074,-0.01843966,-0.28843355,0.3259806,260.0,-0.026556024,0.0026315132,0.00689609,0.19321275142707772,0.8948133714881444,182.01726404165026
-87.64723713,41.8696701,0.0,0.9236371,21-14-09-133,1502158449133,-0.041523993,-0.33071768,0.42405275,257.0,-0.013772851,-0.018141143,0.0015697678,0.22371488215647373,0.8525599536525943,182.13039929506235
-87.64723713,41.8696701,0.0,0.9236371,21-14-09-137,1502158449138,-0.041523993,-0.33071768,0.42405275,257.0,0.004869277,-0.028261155,-0.003223922,0.22371488215647373,0.8525599536525943,182.13039929506235
-87.64723713,41.8696701,0.0,0.9236371,21-14-09-173,1502158449174,-0.08180526,-0.29448882,0.34208483,259.0,0.028837727,-0.0037600736,-0.008550244,0.19309322311660249,0.8460295991149746,182.14597212636997
-87.64723713,41.8696701,0.0,0.9236371,21-14-09-236,1502158449236,-0.0620263,-0.3210015,0.2630993,263.0,0.057067234,-5.642802E-4,-0.004821819,0.13810314332520504,0.8680042386656096,182.00890389010615
-87.64723713,41.8696701,0.0,0.9236371,21-14-09-237,1502158449239,-0.0620263,-0.3210015,0.2630993,263.0,0.06985041,0.026067331,-0.012811303,0.13810314332520504,0.8680042386656096,182.00890389010615
-87.64723713,41.8696701,0.0,0.9236371,21-14-09-273,1502158449273,0.024789967,-0.35780072,0.3052761,262.0,0.11565678,0.010088365,-0.034649223,0.15499766959808448,0.8932762053989213,181.85791572831386
-87.64723713,41.8696701,0.0,0.9236371,21-14-09-334,1502158449335,0.17723036,-0.32581756,0.6297983,263.0,0.082633585,-0.09750335,-0.021333419,0.1460398498211863,1.019568804390837,181.5074177408655
-87.64723713,41.8696701,0.0,0.9236371,21-14-09-337,1502158449338,0.17723036,-0.32581756,0.6297983,263.0,0.073578835,-0.103894934,-0.004821819,0.1460398498211863,1.019568804390837,181.5074177408655
-87.64723713,41.8696701,0.0,0.9236371,21-14-09-374,1502158449374,-0.02934698,-0.21416663,0.43734062,275.0,0.03735984,-0.03838117,0.025005586,-0.061545140403905615,1.063542736206143,181.32495606737777
-87.64723859,41.86967041,0.0,1.0478691,21-14-09-435,1502158449436,-0.081100464,-0.18506323,0.2986116,284.0,-0.048393946,0.009023099,0.017548734,-0.22417419903794386,0.9922890288458062,181.2255904753324
-87.64723859,41.86967041,0.0,1.0478691,21-14-09-439,1502158449440,-0.081100464,-0.18506323,0.2986116,284.0,-0.051057108,-0.0010969124,0.015950838,-0.22417419903794386,0.9922890288458062,181.2255904753324
-87.64723859,41.86967041,0.0,1.0478691,21-14-09-474,1502158449475,-0.033316765,-0.18479808,0.42742464,284.0,-0.028153922,0.01594732,0.007961354,-0.21851536063016183,0.945674054977527,181.31704670831888
-87.64723859,41.86967041,0.0,1.0478691,21-14-09-535,1502158449536,0.020735493,-0.39242464,0.45051265,280.0,0.026174566,0.03565471,0.028734012,-0.13613092620236386,0.9029004221871453,181.40081214829993
-87.64723859,41.86967041,0.0,1.0478691,21-14-09-547,1502158449547,0.008724178,-0.35934153,0.5321936,277.0,0.057067234,0.015414686,0.028734012,-0.07867356063521831,0.8742732851066235,181.38114120349027
-87.64723859,41.86967041,0.0,1.0478691,21-14-09-574,1502158449574,0.023976382,-0.28019223,0.43093485,275.0,0.047479853,0.019675745,0.02607085,-0.05182577454487086,0.8396006835587001,181.32848044498948
-87.64723859,41.86967041,0.0,1.0478691,21-14-09-635,1502158449636,-0.038480427,-0.25211897,0.409121,271.0,-0.016968645,-0.0069558667,0.0015697678,8.691415718841226E-4,0.7701902201397678,181.2182821729205
-87.64723859,41.86967041,0.0,1.0478691,21-14-09-637,1502158449642,0.006980919,-0.26970792,0.46034834,271.0,-0.004718103,-0.033587478,-0.004821819,8.09377416646511E-4,0.7637538874249414,181.23020768321135
-87.64723859,41.86967041,0.0,1.0478691,21-14-09-675,1502158449676,0.03019129,-0.28927764,0.5204821,273.0,0.02937036,0.018610481,-0.003223922,-0.017394784268729972,0.7633850572097608,181.2449745521969
-87.64723859,41.86967041,0.0,1.0478691,21-14-09-735,1502158449737,-0.015747847,-0.3451771,0.43690637,274.0,0.013924025,-0.015477982,0.0010371356,-0.031591332458601476,0.772493968241619,181.16941899959824
-87.64723859,41.86967041,0.0,1.0478691,21-14-09-738,1502158449739,-0.015747847,-0.3451771,0.43690637,274.0,0.002206116,-5.642802E-4,-0.010680774,-0.031591332458601476,0.772493968241619,181.16941899959824
-87.64723859,41.86967041,0.0,1.0478691,21-14-09-775,1502158449776,-0.040193934,-0.3624086,0.28651157,275.0,-0.0031202063,-0.03625064,-0.049562927,-0.05168917076147061,0.775168467549355,181.1393388464935
-87.64723859,41.86967041,0.0,1.0478691,21-14-09-836,1502158449837,-0.07145217,-0.3497356,0.2763207,282.0,-0.0020549418,-0.066078044,-0.04530187,-0.18292984827077063,0.9249104933440998,181.1509091869475
-87.64723859,41.86967041,0.0,1.0478691,21-14-09-839,1502158449840,-0.021316925,-0.35564336,0.31371698,286.0,-0.007913897,-0.04796855,-0.028257638,-0.2719689013223576,0.9933651038052006,181.1466744696621
-87.64723859,41.86967041,0.0,1.0478691,21-14-09-875,1502158449876,-0.0832904,-0.35999864,0.34774992,289.0,-0.023360232,-0.0074884994,0.0063634575,-0.34121095788956685,1.039551696746473,181.15151024359446
-87.64723859,41.86967041,0.0,1.0478691,21-14-09-934,1502158449935,0.047962256,-0.2548624,0.34157875,292.0,-0.06384028,-0.034120113,-0.01227867,-0.38500018111259127,1.0356645720567954,181.2548373453584
-87.64723859,41.86967041,0.0,1.0478691,21-14-09-940,1502158449941,0.047962256,-0.2548624,0.34157875,292.0,-0.06117712,-0.0069558667,-0.017072361,-0.38500018111259127,1.0356645720567954,181.2548373453584
-87.64723859,41.86967041,0.0,1.0478691,21-14-09-977,1502158449978,0.03157226,-0.42458522,0.41669434,294.0,-0.013240219,-0.027195891,-0.01920289,-0.43972848589992003,1.077726691234732,181.45580883149685
-87.64723859,41.86967041,0.0,1.0478691,21-14-10-036,1502158450037,-0.084940284,-0.4028145,0.3404774,295.0,0.00806507,-0.008021131,0.011157148,-0.48302644243080606,1.1089078921780156,181.49002807923864
-87.64723859,41.86967041,0.0,1.0478691,21-14-10-040,1502158450041,-0.08140052,-0.37580442,0.286402,296.0,-0.008446529,0.008490467,0.013820309,-0.49212798966496535,1.1009367412514932,181.48120347483098
-87.64723859,41.86967041,0.0,1.0478691,21-14-10-075,1502158450076,-0.097924314,-0.3690559,0.21131812,296.0,-0.028153922,0.034589447,0.017548734,-0.49188893304401493,1.0843340454830732,181.48321155044695
-87.64723859,41.86967041,0.0,1.0478691,21-14-10-135,1502158450136,-0.029475484,-0.2836349,0.24486795,291.0,-0.029751819,0.07080844,0.017016102,-0.37055571840018947,1.0247035058211,181.57875223655708
-87.64723859,41.86967041,0.0,1.0478691,21-14-10-141,1502158450142,0.010158727,-0.28845307,0.3051692,288.0,-0.03028445,0.072938964,0.026603483,-0.2957382531186929,1.0056276412429006,181.61417359759278
-87.64723859,41.86967041,0.0,1.0478691,21-14-10-176,1502158450177,0.05418479,-0.30485553,0.3919064,284.0,-0.024958128,0.009555732,0.012222412,-0.2098768121763221,0.9778297318163007,181.6468082414471
-87.64723859,41.86967041,0.0,1.0478691,21-14-10-238,1502158450239,0.04400004,-0.3332337,0.43683782,278.0,0.00806507,-0.013880086,-0.018670257,-0.10524132230980847,0.9162028559259798,181.73912507826898
-87.64723859,41.86967041,0.0,1.0478691,21-14-10-245,1502158450246,0.04400004,-0.3332337,0.43683782,278.0,0.00806507,-0.013880086,-0.018670257,-0.10415873732636145,0.9277473697271823,181.75580440022216
-87.64723859,41.86967041,0.0,1.0478691,21-14-10-277,1502158450278,-0.01287285,-0.3292326,0.45441854,278.0,0.013391392,-0.020271672,0.0010371356,-0.10977315949421855,0.9468012496339907,181.75771685318978
-87.64723859,41.86967041,0.0,1.0478691,21-14-10-337,1502158450337,-0.007229897,-0.27118102,0.28780404,279.0,-0.03720867,0.009555732,0.026603483,-0.11786353190631187,0.9373010968287376,181.7295354926743
-87.64723859,41.86967041,0.0,1.0478691,21-14-10-343,1502158450345,-0.007229897,-0.27118102,0.28780404,279.0,-0.03720867,0.009555732,0.026603483,-0.11786353190631187,0.9373010968287376,181.7295354926743
-87.64723859,41.86967041,0.0,1.0478691,21-14-10-377,1502158450378,-0.018614618,-0.18947709,0.5141134,278.0,0.0032713804,-0.05968646,0.009559251,-0.1019372116287082,0.86950074378493,181.8077001775359
-87.64723937,41.8696707,0.0,1.120168,21-14-10-436,1502158450437,0.03921219,-0.21670075,0.4006607,288.0,0.025641933,-0.1017644,-0.030388165,-0.24134033205203706,0.8528001842123084,181.80954432861182
-87.64723937,41.8696707,0.0,1.120168,21-14-10-446,1502158450447,0.07826479,-0.21227075,0.3708998,294.0,0.032566153,-0.10549283,-0.04796503,-0.35728268649129774,0.8802104270426572,181.7897504403971
-87.64723937,41.8696707,0.0,1.120168,21-14-10-477,1502158450479,-0.010693206,-0.30438107,0.56635815,303.0,0.039490372,-0.15502763,-0.049562927,-0.5893788911102514,0.9804487891978834,181.71777390692353
-87.64723937,41.8696707,0.0,1.120168,21-14-10-536,1502158450537,-0.07184531,-0.21220653,0.5041586,313.0,0.0075324387,-0.17366976,-0.026127107,-0.9399786377050884,1.0829540271056133,181.64439035448092
-87.64723937,41.8696707,0.0,1.120168,21-14-10-545,1502158450546,0.0017971579,-0.20168309,0.3662488,317.0,0.0064671733,-0.1827245,-0.027192373,-1.1401499244935942,1.12283240673985,181.62204197551662
-87.64723937,41.8696707,0.0,1.120168,21-14-10-578,1502158450579,-0.25313365,-0.17641559,0.09983358,324.0,0.0027387482,-0.031989582,-0.023463948,-1.5238104013530847,1.1887381827017725,181.6089553330669
-87.64723937,41.8696707,0.0,1.120168,21-14-10-635,1502158450640,-0.13474832,-0.25244707,0.35001716,324.0,0.032566153,0.016479952,0.005830826,-1.6015532153117564,1.2319003892229046,181.58978982225582
-87.64723937,41.8696707,0.0,1.120168,21-14-10-649,1502158450650,0.064357765,-0.33352667,0.47278264,324.0,0.049610384,-0.0032274413,0.0031676646,-1.5707303858564872,1.2283196625505253,181.55569351791914
-87.64723937,41.8696707,0.0,1.120168,21-14-10-679,1502158450680,-0.050772656,-0.2785694,0.3473563,324.0,0.06345882,0.029795757,0.004232929,-1.565226640767632,1.2185023328356899,181.4428861135872
-87.64723937,41.8696707,0.0,1.120168,21-14-10-736,1502158450737,-0.12824683,-0.21170272,0.38619497,322.0,0.074644096,0.079330556,0.007428723,-1.487047868640843,1.201352581603434,181.29728014086086
-87.64723937,41.8696707,0.0,1.120168,21-14-10-745,1502158450746,-0.070514195,-0.2575344,0.5089294,321.0,0.08210095,0.058557898,0.0063634575,-1.3964098709725987,1.186154343483098,181.21818655027212
-87.64723937,41.8696707,0.0,1.120168,21-14-10-779,1502158450780,-0.18412207,-0.2951859,0.3991996,318.0,0.06985041,0.036187343,0.026603483,-1.3197912634626285,1.1768745710002835,181.12492714734478
-87.64723937,41.8696707,0.0,1.120168,21-14-10-835,1502158450836,-0.102331646,-0.26973635,0.31585512,318.0,0.0416209,0.014882055,0.030331906,-1.1666598096531178,1.0880567120241418,180.8833706771581
-87.64723937,41.8696707,0.0,1.120168,21-14-10-846,1502158450847,-0.108034745,-0.2617294,0.15410188,319.0,0.0011408514,0.035122078,0.03086454,-1.1622739744323234,1.0525774011022162,180.8220082576547
-87.64723937,41.8696707,0.0,1.120168,21-14-10-879,1502158450879,0.037047226,-0.24199453,0.28347337,319.0,-0.022294967,0.056959998,0.03565823,-1.0869805303430415,0.9768326309191847,180.8163392006436
-87.64723937,41.8696707,0.0,1.120168,21-14-10-937,1502158450938,0.16133472,-0.19504227,0.4421974,317.0,-0.007913897,-0.0112169245,0.022342425,-0.9557380185544234,0.8643638545596987,180.89082924373176
-87.64723937,41.8696707,0.0,1.120168,21-14-10-946,1502158450946,0.2007925,-0.18098508,0.46731988,317.0,-0.007913897,-0.0112169245,0.022342425,-0.9023907193203331,0.8643638545596987,180.89082924373176
-87.64723937,41.8696707,0.0,1.120168,21-14-10-980,1502158450981,0.1315755,-0.1767834,0.49466398,319.0,-0.020164438,0.007425203,0.020744529,-0.89424123642345,0.8359331921395206,180.9078090940084
-87.64723937,41.8696707,0.0,1.120168,21-14-11-036,1502158451040,-0.050068177,-0.24345165,0.29939002,322.0,-0.03028445,0.014882055,0.012222412,-0.9042248385558931,0.7388435471916702,181.01306230911828
-87.64723937,41.8696707,0.0,1.120168,21-14-11-047,1502158451048,-0.050068177,-0.24345165,0.29939002,322.0,-0.03028445,0.014882055,0.012222412,-0.9042248385558931,0.7388435471916702,181.01306230911828
-87.64723937,41.8696707,0.0,1.120168,21-14-11-079,1502158451080,-0.0074479813,-0.27191117,0.3559598,323.0,-0.022294967,-0.006423235,0.014885573,-0.8914883500228176,0.7055644109561352,181.0832083518943
-87.64723937,41.8696707,0.0,1.120168,21-14-11-137,1502158451137,-0.03162206,-0.22618982,0.37908527,324.0,-0.014305484,-0.0069558667,0.019679263,-0.8928647932231338,0.6690263673520048,181.12697620409577
-87.64723937,41.8696707,0.0,1.120168,21-14-11-146,1502158451146,0.028333599,-0.23486921,0.46172503,325.0,-0.023892865,-0.011749557,0.019679263,-0.8752920505100132,0.6435880748402328,181.14034971449067
-87.64723937,41.8696707,0.0,1.120168,21-14-11-180,1502158451181,-0.046684116,-0.23597114,0.21059743,328.0,-0.06117712,-0.0021621769,0.034060333,-0.8808353893517133,0.6195663528901508,181.16283469723834
-87.64723937,41.8696707,0.0,1.120168,21-14-11-237,1502158451238,0.04652687,-0.25769538,0.5035316,333.0,0.0149892885,5.0098426E-4,0.023940321,-0.8939509533837245,0.5180238514902754,181.33083003006396
-87.64723937,41.8696707,0.0,1.120168,21-14-11-245,1502158451246,0.037290905,-0.26114324,0.34099177,333.0,0.0149892885,5.0098426E-4,0.023940321,-0.907841850608238,0.4897099959770751,181.32789304872085
-87.64723937,41.8696707,0.0,1.120168,21-14-11-279,1502158451280,0.04836777,-0.26808745,0.3544025,335.0,6.082192E-4,-0.0074884994,0.012222412,-0.9022949899502472,0.4366849962944447,181.29236240465846
-87.64723937,41.8696707,0.0,1.120168,21-14-11-337,1502158451338,-0.005965705,-0.23658201,0.24330388,337.0,-0.038806565,0.002098881,0.007961354,-0.905382662341916,0.4076799843341773,181.29603704643193
-87.64723937,41.8696707,0.0,1.120168,21-14-11-346,1502158451347,0.001123294,-0.25868404,0.40053752,338.0,-0.038806565,0.002098881,0.007961354,-0.8999451914323512,0.39455836384536297,181.33671765312852
-87.64723937,41.8696707,0.0,1.120168,21-14-11-379,1502158451380,0.13440552,-0.27130207,0.63576657,339.0,0.018717714,-0.04637065,0.0026350324,-0.903280458181433,0.37303368968672895,181.41057931881303
-87.64723985,41.86967081,0.0,1.1614629,21-14-11-439,1502158451441,0.0044321488,-0.27976212,0.34446773,342.0,0.016054554,-0.03571801,-0.0064197155,-1.0283333244781387,0.36535693058560487,181.34778255958395
-87.64723985,41.86967081,0.0,1.1614629,21-14-11-446,1502158451446,0.0044321488,-0.27976212,0.34446773,342.0,0.016054554,-0.03571801,-0.0064197155,-1.0283333244781387,0.36535693058560487,181.34778255958395
-87.64723985,41.86967081,0.0,1.1614629,21-14-11-480,1502158451481,-0.0652185,-0.3013457,0.316635,342.0,0.0149892885,-0.013880086,-0.0064197155,-1.0953797420314533,0.37678383706703616,181.30909636812498
-87.64723985,41.86967081,0.0,1.1614629,21-14-11-540,1502158451540,-0.011215949,-0.29239997,0.52648443,342.0,0.03735984,-0.025065362,-0.013343935,-1.1220156655255047,0.39039755134120874,181.2666399122442
-87.64723985,41.86967081,0.0,1.1614629,21-14-11-545,1502158451546,-0.011215949,-0.29239997,0.52648443,342.0,0.03735984,-0.025065362,-0.013343935,-1.1220156655255047,0.39039755134120874,181.2666399122442
-87.64723985,41.86967081,0.0,1.1614629,21-14-11-580,1502158451581,0.012279144,-0.33179256,0.558871,342.0,0.059197765,-0.06288225,-0.013343935,-1.1672371740813954,0.4136010112926379,181.17859877384274
-87.64723985,41.86967081,0.0,1.1614629,21-14-11-641,1502158451642,-0.10080136,-0.3059871,0.09921801,343.0,-0.03294761,0.017545216,0.0052981935,-1.2985540708989434,0.4386219418935251,181.05771808591183
-87.64723985,41.86967081,0.0,1.1614629,21-14-11-646,1502158451647,-0.077600524,-0.2733902,0.010426321,343.0,-0.03294761,0.017545216,0.0052981935,-1.335183735087487,0.43385086799528605,181.0553411800807
-87.64723985,41.86967081,0.0,1.1614629,21-14-11-681,1502158451683,0.10140242,-0.2668193,0.25311822,343.0,-0.037741303,0.007425203,-0.01920289,-1.3111384810012803,0.4295731685428747,181.12853348722652
-87.64723985,41.86967081,0.0,1.1614629,21-14-11-744,1502158451745,0.09038034,-0.24175955,0.6527629,341.0,0.011260863,-0.03145695,-0.0042891866,-1.2814605620056343,0.47973978741870765,181.22542655079232
-87.64723985,41.86967081,0.0,1.1614629,21-14-11-747,1502158451747,0.09038034,-0.24175955,0.6527629,341.0,0.011260863,-0.03145695,-0.0042891866,-1.2814605620056343,0.47973978741870765,181.22542655079232
-87.64723985,41.86967081,0.0,1.1614629,21-14-11-780,1502158451781,3.7269765E-5,-0.3052838,0.48294032,341.0,0.0149892885,-0.037315905,0.0010371356,-1.3328061889260878,0.480952092635532,181.20223122837098
-87.64723985,41.86967081,0.0,1.1614629,21-14-11-843,1502158451843,0.06904589,-0.2675111,0.54858655,342.0,0.11565678,-0.020271672,-0.034116592,-1.4052917849362598,0.48294287933517915,181.1424807335117
-87.64723985,41.86967081,0.0,1.1614629,21-14-11-846,1502158451846,0.004794175,-0.2587094,0.4157993,342.0,0.13110313,-0.01760851,-0.037312385,-1.4359722476360166,0.5081939819750105,181.0448363491372
-87.64723985,41.86967081,0.0,1.1614629,21-14-11-881,1502158451882,-0.1397379,-0.25642452,0.15896374,339.0,0.110330455,0.030328391,-0.025061844,-1.4637594848920383,0.582145720779208,180.7564111208659
-87.64723985,41.86967081,0.0,1.1614629,21-14-11-946,1502158451947,-0.044098705,-0.2891698,0.35134003,334.0,0.0911557,0.030861022,-0.03891028,-1.393595085982613,0.6770979434036674,180.38756724530688
-87.64723985,41.86967081,0.0,1.1614629,21-14-11-948,1502158451949,-0.044098705,-0.2891698,0.35134003,334.0,0.0911557,0.030861022,-0.03891028,-1.393595085982613,0.6770979434036674,180.38756724530688
-87.64723985,41.86967081,0.0,1.1614629,21-14-11-983,1502158451984,-0.0057679494,-0.22986333,0.38318792,330.0,0.089557804,0.02819786,-0.044236604,-1.329912856760647,0.7577351567448379,180.17501175833607
-87.64723985,41.86967081,0.0,1.1614629,21-14-12-043,1502158452044,7.4758887E-4,-0.23238657,0.3962411,325.0,0.06825251,-0.004825338,-0.03145343,-1.2774810163187498,0.9021930707212258,179.8699172260243
-87.64723985,41.86967081,0.0,1.1614629,21-14-12-045,1502158452046,7.4758887E-4,-0.23238657,0.3962411,325.0,0.06825251,-0.004825338,-0.03145343,-1.2774810163187498,0.9021930707212258,179.8699172260243
-87.64723985,41.86967081,0.0,1.1614629,21-14-12-082,1502158452083,0.013758787,-0.17356595,0.45263657,323.0,0.06079566,-0.004292706,-0.0101481415,-1.28426168661728,0.9660122238917094,179.71263162981722
-87.64723985,41.86967081,0.0,1.1614629,21-14-12-142,1502158452143,-0.00950806,-0.20665716,0.3672077,323.0,0.022978771,-0.05968646,-0.014409199,-1.3523391425701492,0.9952159783485682,179.5022344826241
-87.64723985,41.86967081,0.0,1.1614629,21-14-12-147,1502158452147,-0.00950806,-0.20665716,0.3672077,323.0,0.022978771,-0.05968646,-0.014409199,-1.3523391425701492,0.9952159783485682,179.5022344826241
-87.64723985,41.86967081,0.0,1.1614629,21-14-12-184,1502158452185,0.037981573,-0.221475,0.3305163,325.0,0.015521921,-0.05329487,0.0021024002,-1.4151029247921598,1.0048380073418237,179.46591153661802
-87.64723985,41.86967081,0.0,1.1614629,21-14-12-247,1502158452247,0.03912492,-0.20052238,0.3817511,328.0,0.12204837,-0.0224022,-0.018670257,-1.6221236106577193,1.0005195135173774,179.33863779162402
-87.64723985,41.86967081,0.0,1.1614629,21-14-12-248,1502158452250,0.03912492,-0.20052238,0.3817511,328.0,0.12204837,-0.0224022,-0.018670257,-1.6221236106577193,1.0005195135173774,179.33863779162402
-87.64723985,41.86967081,0.0,1.1614629,21-14-12-283,1502158452284,0.030985009,-0.19150005,0.28417963,327.0,0.08742727,-0.0069558667,-0.03571449,-1.663883493964883,1.0339525424526492,179.0724653196686
-87.64723985,41.86967081,0.0,1.1614629,21-14-12-345,1502158452346,-0.026611062,-0.20582873,0.50935864,325.0,0.10074308,-0.032522213,-0.020800786,-1.710082466624026,1.146310221516417,178.77223752451152
-87.64723985,41.86967081,0.0,1.1614629,21-14-12-348,1502158452349,-0.026611062,-0.20582873,0.50935864,325.0,0.10074308,-0.032522213,-0.020800786,-1.710082466624026,1.146310221516417,178.77223752451152
-87.64723985,41.86967081,0.0,1.1614629,21-14-12-382,1502158452383,0.014944845,-0.17159961,0.45331627,325.0,0.13749471,-0.04583802,-0.013876567,-1.7888951656831569,1.1856422927387584,178.54047554559463
-87.64724007,41.86967081,0.0,1.1780807,21-14-12-448,1502158452450,-0.07546617,-0.16096734,0.21467996,326.0,0.14921261,0.0031641454,-0.015474464,-1.910676051202309,1.2112472845549611,178.05486275598514
-87.64724007,41.86967081,0.0,1.1780807,21-14-12-449,1502158452450,-0.07546617,-0.16096734,0.21467996,326.0,0.14921261,0.0031641454,-0.015474464,-1.910676051202309,1.2112472845549611,178.05486275598514
-87.64724007,41.86967081,0.0,1.1780807,21-14-12-482,1502158452482,-0.006745538,-0.26507044,0.3527252,325.0,0.1406905,0.009023099,-0.018670257,-1.9055847855062993,1.2367180204652906,177.71205556154212
-87.64724007,41.86967081,0.0,1.1780807,21-14-12-547,1502158452548,0.010063984,-0.15302397,0.53505075,323.0,0.14335367,0.005294674,0.0047655613,-1.8588581807337727,1.2638471049617581,177.20648495917783
-87.64724007,41.86967081,0.0,1.1780807,21-14-12-550,1502158452551,0.010063984,-0.15302397,0.53505075,323.0,0.14335367,0.005294674,0.0047655613,-1.8588581807337727,1.2638471049617581,177.20648495917783
-87.64724007,41.86967081,0.0,1.1780807,21-14-12-583,1502158452584,0.054984536,-0.14422123,0.46638283,323.0,0.13057049,-0.01707588,-0.013876567,-1.8471416315428506,1.2441459579093852,176.87829436955872
-87.64724007,41.86967081,0.0,1.1780807,21-14-12-648,1502158452649,0.005427592,-0.15902199,0.51527005,323.0,0.1705179,-0.01707588,-0.008550244,-1.8833745044292989,1.2631265200043218,176.43325290361895
-87.64724007,41.86967081,0.0,1.1780807,21-14-12-650,1502158452651,0.005427592,-0.15902199,0.51527005,323.0,0.1705179,-0.01707588,-0.008550244,-1.8833745044292989,1.2631265200043218,176.43325290361895
-87.64724007,41.86967081,0.0,1.1780807,21-14-12-683,1502158452683,-0.0016960423,-0.14643013,0.4730939,323.0,0.18436635,-0.011749557,-0.013876567,-1.9244431512481162,1.2704349291379413,176.04744283816171
-87.64724007,41.86967081,0.0,1.1780807,21-14-12-749,1502158452749,-0.061888974,-0.17759746,0.3372085,322.0,0.13216838,0.007425203,-0.020268153,-1.9737754731890025,1.2978245213182213,175.45532007863494
-87.64724007,41.86967081,0.0,1.1780807,21-14-12-751,1502158452752,-0.061888974,-0.17759746,0.3372085,322.0,0.13216838,0.007425203,-0.020268153,-1.9737754731890025,1.2978245213182213,175.45532007863494
-87.64724007,41.86967081,0.0,1.1780807,21-14-12-783,1502158452784,-0.018297473,-0.2229995,0.3794712,322.0,0.15666947,0.015414686,-0.028257638,-1.9661689903311355,1.3107300570332545,175.29673674648552
-87.64724007,41.86967081,0.0,1.1780807,21-14-12-846,1502158452847,-0.005278861,-0.27801332,0.44414404,319.0,0.2035411,0.0122188935,-0.030388165,-1.9294695301470108,1.3992667043146623,174.55549729699908
-87.64724007,41.86967081,0.0,1.1780807,21-14-12-850,1502158452850,-0.005278861,-0.27801332,0.44414404,319.0,0.2035411,0.0122188935,-0.030388165,-1.9294695301470108,1.3992667043146623,174.55549729699908
-87.64724007,41.86967081,0.0,1.1780807,21-14-12-886,1502158452887,-0.04070263,-0.24165742,0.3832273,317.0,0.16625684,-0.0021621769,-0.013876567,-1.9082534684810704,1.447431810959417,174.0945961318066
-87.64724007,41.86967081,0.0,1.1780807,21-14-12-947,1502158452948,-0.022940382,-0.27468428,0.38198686,316.0,0.13536417,0.014882055,-0.011746038,-1.9038488502400583,1.464750929538748,173.55251133813942
-87.64724007,41.86967081,0.0,1.1780807,21-14-12-950,1502158452950,-0.022940382,-0.27468428,0.38198686,316.0,0.13536417,0.014882055,-0.011746038,-1.9038488502400583,1.464750929538748,173.55251133813942
-87.64724007,41.86967081,0.0,1.1780807,21-14-12-986,1502158452987,0.01522031,-0.25215465,0.49319574,315.0,0.13589682,0.0122188935,-0.018137624,-1.8746408269149681,1.4780447188194141,173.2416557686338
-87.64724007,41.86967081,0.0,1.1780807,21-14-13-046,1502158453047,0.04398368,-0.29477444,0.47737592,313.0,0.1273747,0.0068925703,-0.020800786,-1.8140325029846254,1.5162279308790183,172.7869973963427
-87.64724007,41.86967081,0.0,1.1780807,21-14-13-053,1502158453053,0.04398368,-0.29477444,0.47737592,313.0,0.1273747,0.0068925703,-0.020800786,-1.8140325029846254,1.5162279308790183,172.7869973963427
-87.64724007,41.86967081,0.0,1.1780807,21-14-13-086,1502158453087,0.06418733,-0.19220862,0.5255493,312.0,0.1737137,-0.009086396,-0.034116592,-1.7961933295330215,1.5541715527091433,172.48757556350768
-87.64724007,41.86967081,0.0,1.1780807,21-14-13-147,1502158453148,-0.033775654,-0.12678139,0.44439086,310.0,0.12524417,-0.0021621769,-0.018670257,-1.8058800318799804,1.632712858470472,171.9259564288143
-87.64724007,41.86967081,0.0,1.1780807,21-14-13-153,1502158453154,-0.033775654,-0.12678139,0.44439086,310.0,0.12524417,-0.0021621769,-0.018670257,-1.8058800318799804,1.632712858470472,171.9259564288143
-87.64724007,41.86967081,0.0,1.1780807,21-14-13-187,1502158453189,-0.031750783,-0.13064069,0.59683466,309.0,0.13163576,-0.004292706,-0.009615509,-1.8059005224474904,1.6651294698798813,171.6341297663363
-87.64724007,41.86967081,0.0,1.1780807,21-14-13-247,1502158453250,0.029664245,-0.1003598,0.5040086,308.0,0.19235583,-3.164797E-5,-0.010680774,-1.7974643850488785,1.6886510405558186,171.12338188058106
-87.64724007,41.86967081,0.0,1.1780807,21-14-13-253,1502158453254,0.029664245,-0.1003598,0.5040086,308.0,0.19235583,-3.164797E-5,-0.010680774,-1.7974643850488785,1.6886510405558186,171.12338188058106
-87.64724007,41.86967081,0.0,1.1780807,21-14-13-286,1502158453287,0.0025014803,-0.115783736,0.37284356,308.0,0.17424633,-0.0074884994,-0.005354451,-1.8084904448033947,1.6962600847346243,170.68838079272132
-87.64724007,41.86967081,0.0,1.1780807,21-14-13-349,1502158453350,-0.0777842,-0.1908008,0.40082535,307.0,0.18063793,0.0122188935,0.004232929,-1.8294217729583102,1.6888312935168834,170.09549305200744
-87.64724007,41.86967081,0.0,1.1780807,21-14-13-353,1502158453354,-0.0777842,-0.1908008,0.40082535,307.0,0.18063793,0.0122188935,0.004232929,-1.8294217729583102,1.6888312935168834,170.09549305200744
-87.64724007,41.86967081,0.0,1.1780807,21-14-13-387,1502158453388,-0.09741258,-0.16807827,0.4016968,307.0,0.18649687,0.02766523,0.018613998,-1.810168110018279,1.6626106241800276,169.67969845609377
-87.64724021,41.86967086,0.0,1.1909592,21-14-13-452,1502158453453,-0.0104355,-0.11215832,0.47701162,306.0,0.17957266,0.03352418,0.01168978,-1.7240394245844182,1.5862312867344195,169.04312482544856
-87.64724021,41.86967086,0.0,1.1909592,21-14-13-455,1502158453456,-0.0104355,-0.11215832,0.47701162,306.0,0.17957266,0.03352418,0.01168978,-1.7240394245844182,1.5862312867344195,169.04312482544856
-87.64724021,41.86967086,0.0,1.1909592,21-14-13-487,1502158453489,0.0059538446,-0.15281005,0.5113548,306.0,0.17318107,0.016479952,0.004232929,-1.6547476890631678,1.5469163977067089,168.62769905975006
-87.64724021,41.86967086,0.0,1.1909592,21-14-13-552,1502158453553,0.03446076,-0.16396014,0.54843676,304.0,0.20993268,0.014882055,0.007961354,-1.5797120846150539,1.5049233274724125,167.97913161692236
-87.64724021,41.86967086,0.0,1.1909592,21-14-13-554,1502158453555,0.03446076,-0.16396014,0.54843676,304.0,0.20993268,0.014882055,0.007961354,-1.5797120846150539,1.5049233274724125,167.97913161692236
-87.64724021,41.86967086,0.0,1.1909592,21-14-13-588,1502158453589,0.01880293,-0.19192716,0.43767828,304.0,0.16519159,0.015414686,0.0026350324,-1.5512367058001535,1.4755585299615295,167.50260297890895
-87.64724021,41.86967086,0.0,1.1909592,21-14-13-653,1502158453654,0.038021833,-0.15116668,0.6344394,303.0,0.18702951,0.002098881,-0.017604992,-1.521613748482985,1.4690637671127877,166.9362983344448
-87.64724021,41.86967086,0.0,1.1909592,21-14-13-656,1502158453656,0.038021833,-0.15116668,0.6344394,303.0,0.19714952,0.0015662487,-0.013343935,-1.521613748482985,1.4690637671127877,166.9362983344448
-87.64724021,41.86967086,0.0,1.1909592,21-14-13-689,1502158453689,-0.0022181137,-0.15548433,0.5662923,302.0,0.1886274,-0.006423235,0.005830826,-1.5209441765009122,1.4910187698695592,166.50845528483524
-87.64724021,41.86967086,0.0,1.1909592,21-14-13-753,1502158453753,0.043122638,-0.1776952,0.38052124,303.0,0.12045047,-0.0053579705,0.0031676646,-1.5414010199519235,1.447769691879921,165.92551229955302
-87.64724021,41.86967086,0.0,1.1909592,21-14-13-756,1502158453757,0.043122638,-0.1776952,0.38052124,303.0,0.13163576,-0.019206407,-0.0010933933,-1.5414010199519235,1.447769691879921,165.92551229955302
-87.64724021,41.86967086,0.0,1.1909592,21-14-13-790,1502158453792,0.03112806,-0.18783732,0.4864341,303.0,0.1454842,-0.0058906022,-0.012811303,-1.5613149700856246,1.4320099908654687,165.63589861836613
-87.64724021,41.86967086,0.0,1.1909592,21-14-13-852,1502158453853,-0.046222366,-0.13012744,0.45176166,303.0,0.1076673,-0.014412719,-0.0026912899,-1.6051609425756983,1.4533690596171565,165.13902967700437
-87.64724021,41.86967086,0.0,1.1909592,21-14-13-857,1502158453857,-0.046222366,-0.13012744,0.45176166,303.0,0.096482016,-0.009086396,-0.0016260255,-1.6051609425756983,1.4533690596171565,165.13902967700437
-87.64724021,41.86967086,0.0,1.1909592,21-14-13-890,1502158453891,0.0038776258,-0.1018366,0.46060598,303.0,0.10926519,-0.019206407,-0.0021586576,-1.6351302118281275,1.4534161238894059,164.8839630926393
-87.64724021,41.86967086,0.0,1.1909592,21-14-13-953,1502158453953,-0.04730712,-0.045189194,0.40715474,304.0,0.13483155,-5.642802E-4,0.015418205,-1.6793639042753052,1.4415192150157132,164.43953634372497
-87.64724021,41.86967086,0.0,1.1909592,21-14-13-957,1502158453957,-0.04730712,-0.045189194,0.40715474,304.0,0.11512415,-0.0016295447,0.021809792,-1.6793639042753052,1.4415192150157132,164.43953634372497
-87.64724021,41.86967086,0.0,1.1909592,21-14-13-991,1502158453992,0.008267389,-0.016988846,0.44148716,304.0,0.09009043,-5.642802E-4,0.027136113,-1.684912365758883,1.39808027911149,164.13615300117135
-87.64724021,41.86967086,0.0,1.1909592,21-14-14-053,1502158454054,-0.022736631,-0.053148888,0.6140304,306.0,0.11778731,-0.029859053,0.01168978,-1.7093888822581524,1.3070950090126328,163.81999720486988
-87.64724021,41.86967086,0.0,1.1909592,21-14-14-057,1502158454057,-0.022736631,-0.053148888,0.6140304,306.0,0.14921261,-0.022934834,0.012755044,-1.7093888822581524,1.3070950090126328,163.81999720486988
-87.64724021,41.86967086,0.0,1.1909592,21-14-14-091,1502158454092,-0.047280822,-0.07037279,0.520335,308.0,0.16306105,-0.014945351,0.010091883,-1.7667068692775474,1.2665697891196546,163.54752729849963
-87.64724021,41.86967086,0.0,1.1909592,21-14-14-153,1502158454154,-0.038752172,-0.055062532,0.3726165,309.0,0.15294105,0.02074101,0.0015697678,-1.8058766167853955,1.2159564865442734,162.97334061573338
-87.64724021,41.86967086,0.0,1.1909592,21-14-14-157,1502158454158,-0.038752172,-0.055062532,0.3726165,309.0,0.1454842,0.0063599385,-2.8128852E-5,-1.8058766167853955,1.2159564865442734,162.97334061573338
-87.64724021,41.86967086,0.0,1.1909592,21-14-14-191,1502158454195,-0.031142319,-0.01577929,0.48990077,309.0,0.1540063,0.014882055,-0.00748498,-1.776383006175634,1.201159735481087,162.5981583246246
-87.64724021,41.86967086,0.0,1.1909592,21-14-14-255,1502158454256,0.016871396,-0.087289535,0.56737036,307.0,0.1705179,0.010088365,-0.005354451,-1.727985566377393,1.2036712173832418,162.06831322995004
-87.64724021,41.86967086,0.0,1.1909592,21-14-14-257,1502158454259,0.016871396,-0.087289535,0.56737036,307.0,0.16892001,0.014349422,-5.607611E-4,-1.727985566377393,1.2036712173832418,162.06831322995004
-87.64724021,41.86967086,0.0,1.1909592,21-14-14-292,1502158454292,-0.009818475,-0.10213158,0.51850635,306.0,0.16838738,-0.002694809,5.045034E-4,-1.699535373885057,1.2005537696356599,161.6786782585575
-87.64724021,41.86967086,0.0,1.1909592,21-14-14-354,1502158454355,-0.06037392,-0.017641297,0.5116964,307.0,0.15294105,-0.0010969124,0.0052981935,-1.697676815378873,1.1700957149707516,161.10163655671806
-87.64724021,41.86967086,0.0,1.1909592,21-14-14-358,1502158454359,-0.06037392,-0.017641297,0.5116964,307.0,0.13696207,0.007425203,0.0031676646,-1.697676815378873,1.1700957149707516,161.10163655671806
-87.64724021,41.86967086,0.0,1.1909592,21-14-14-392,1502158454393,-0.029144412,-0.04534811,0.40213546,306.0,0.13855997,0.020208377,5.045034E-4,-1.698705185735783,1.1509185714937655,160.60307372844215
-87.6472403,41.86967093,0.0,1.2009783,21-14-14-457,1502158454458,-0.030773878,-0.049690507,0.37121493,305.0,0.14282103,0.04524209,0.0063634575,-1.640401837206908,1.1336499322812694,159.95469753091118
-87.6472403,41.86967093,0.0,1.2009783,21-14-14-490,1502158454492,0.08083545,-0.051830333,0.44672292,304.0,0.15027788,0.024469435,0.023940321,-1.5611577690130085,1.1135157085468352,159.31362963579215
-87.6472403,41.86967093,0.0,1.2009783,21-14-14-492,1502158454493,0.08083545,-0.051830333,0.44672292,304.0,0.15027788,0.024469435,0.023940321,-1.5611577690130085,1.1135157085468352,159.31362963579215
-87.6472403,41.86967093,0.0,1.2009783,21-14-14-556,1502158454557,0.22695239,0.031276133,0.78375125,303.0,0.22644429,0.023936803,0.01914663,-1.4406181636538005,1.0068069160917856,158.35517651032092
-87.6472403,41.86967093,0.0,1.2009783,21-14-14-558,1502158454559,0.22695239,0.031276133,0.78375125,303.0,0.19501899,-3.164797E-5,0.0026350324,-1.4406181636538005,1.0068069160917856,158.35517651032092
-87.6472403,41.86967093,0.0,1.2009783,21-14-14-594,1502158454594,0.21423063,-0.07940625,0.31663838,303.0,0.13642944,-0.021869568,0.010624515,-1.4029038867693997,0.9546049542041418,157.65413955428915
-87.6472403,41.86967093,0.0,1.2009783,21-14-14-655,1502158454658,-0.052267574,-0.048894193,0.5658427,307.0,0.18596424,-0.06075172,0.062822476,-1.5124922442898445,0.8565406732782423,156.93359557798783
-87.6472403,41.86967093,0.0,1.2009783,21-14-14-658,1502158454659,-0.1564859,-0.003862679,0.51242834,311.0,0.18596424,-0.06075172,0.062822476,-1.5917823095389358,0.7763609225289041,156.6282041598182
-87.6472403,41.86967093,0.0,1.2009783,21-14-14-691,1502158454692,-0.19485436,0.035132986,0.48383236,314.0,0.19874741,-0.06501278,0.041517183,-1.666056454616299,0.693283890911011,156.34092640332756
-87.6472403,41.86967093,0.0,1.2009783,21-14-14-757,1502158454758,-0.27046037,-0.04080162,0.047479767,318.0,0.15933263,0.015414686,0.008493986,-1.833993517390576,0.5720474461739028,155.30355727218603
-87.6472403,41.86967093,0.0,1.2009783,21-14-14-759,1502158454759,-0.27046037,-0.04080162,0.047479767,318.0,0.17318107,0.046307355,0.02127716,-1.833993517390576,0.5720474461739028,155.30355727218603
-87.6472403,41.86967093,0.0,1.2009783,21-14-14-792,1502158454793,-0.11958741,0.0026358229,0.28902498,318.0,0.17797476,0.053231575,0.029799275,-1.7963438071381732,0.5381480967452188,154.75723776123334
-87.6472403,41.86967093,0.0,1.2009783,21-14-14-857,1502158454858,0.047558367,0.1410907,0.72004443,319.0,0.20780216,0.026067331,0.010624515,-1.6274636446499056,0.4443748021241006,153.8893392837781
-87.6472403,41.86967093,0.0,1.2009783,21-14-14-859,1502158454860,0.023313625,0.14486502,0.7183869,318.0,0.20780216,0.026067331,0.010624515,-1.5786324878393687,0.42895415596891584,153.51053699240924
-87.6472403,41.86967093,0.0,1.2009783,21-14-14-892,1502158454893,0.023380592,0.12877478,0.6441016,318.0,0.19981268,0.02766523,0.020744529,-1.5380257325631737,0.40989245869715896,153.2693903335728
-87.6472403,41.86967093,0.0,1.2009783,21-14-14-960,1502158454960,0.17897886,0.11331522,0.60411406,322.0,0.17318107,-0.033054847,0.020211896,-1.4483558074880727,0.27298846713854075,152.2101645970872
-87.6472403,41.86967093,0.0,1.2009783,21-14-14-957,1502158454961,0.17897886,0.11331522,0.60411406,322.0,0.17318107,-0.033054847,0.020211896,-1.4483558074880727,0.27298846713854075,152.2101645970872
-87.6472403,41.86967093,0.0,1.2009783,21-14-14-993,1502158454994,0.10131442,0.056176692,0.47890887,323.0,0.16785474,-0.027728522,0.012222412,-1.4832968141260365,0.24440706030894635,151.87905068650332
-87.6472403,41.86967093,0.0,1.2009783,21-14-15-058,1502158455059,-0.13310678,-0.031462733,0.39329037,324.0,0.21312849,0.002098881,-0.0064197155,-1.585393628065741,0.2008592282441863,150.85845649996332
-87.6472403,41.86967093,0.0,1.2009783,21-14-15-060,1502158455061,-0.16462676,-0.07949564,0.3136463,324.0,0.21312849,0.002098881,-0.0064197155,-1.6214403782973064,0.19132739243252941,150.62394878500015
-87.6472403,41.86967093,0.0,1.2009783,21-14-15-093,1502158455094,-0.17878264,-0.04898794,0.2516474,324.0,0.22537902,0.0063599385,-0.0058870832,-1.6366710598162002,0.18819932587522223,150.3799744278473
-87.6472403,41.86967093,0.0,1.2009783,21-14-15-158,1502158455159,0.041099362,-0.057085812,0.36790606,323.0,0.13589682,0.026599964,-0.004821819,-1.580555933142668,0.17945324196259446,149.45233911591117
-87.6472403,41.86967093,0.0,1.2009783,21-14-15-160,1502158455160,0.041099362,-0.057085812,0.36790606,323.0,0.13589682,0.026599964,-0.004821819,-1.5386235875589613,0.1696054698811848,149.1015406001393
-87.6472403,41.86967093,0.0,1.2009783,21-14-15-192,1502158455193,0.0464049,-0.07801161,0.55524063,323.0,0.13216838,0.020208377,-0.014409199,-1.5029915578760626,0.1650641411350668,148.79634042726644
-87.6472403,41.86967093,0.0,1.2009783,21-14-15-259,1502158455260,0.008421707,-0.23491359,0.40343893,320.0,0.16945264,0.005827307,0.0052981935,-1.4427943259563898,0.1875433742508498,148.1251104167726
-87.6472403,41.86967093,0.0,1.2009783,21-14-15-260,1502158455261,0.008421707,-0.23491359,0.40343893,320.0,0.16945264,0.005827307,0.0052981935,-1.4427943259563898,0.1875433742508498,148.1251104167726
-87.6472403,41.86967093,0.0,1.2009783,21-14-15-293,1502158455293,0.020404194,-0.23162591,0.3731694,320.0,0.14335367,0.0063599385,0.004232929,-1.4613852471035182,0.1775609727375968,147.39766794940954
-87.6472403,41.86967093,0.0,1.2009783,21-14-15-362,1502158455363,0.09957494,-0.22945952,0.509927,319.0,0.089557804,0.020208377,-0.01920289,-1.4168963830578172,0.20343151483821015,146.6928743893343
-87.6472403,41.86967093,0.0,1.2009783,21-14-15-362,1502158455363,0.09957494,-0.22945952,0.509927,319.0,0.089557804,0.020208377,-0.01920289,-1.4168963830578172,0.20343151483821015,146.6928743893343
-87.6472403,41.86967093,0.0,1.2009783,21-14-15-392,1502158455394,0.089278795,-0.20885517,0.77961624,317.0,0.10926519,0.0010336165,-0.013876567,-1.3772012445924071,0.22486071309080946,146.45579852324317
-87.64724037,41.86967097,0.0,1.2081109,21-14-15-460,1502158455460,0.021329775,-0.12052731,0.61743534,316.0,0.04375143,-0.054360136,0.020211896,-1.3683365128233769,0.23027953438228901,145.68088624114853
-87.64724037,41.86967097,0.0,1.2081109,21-14-15-462,1502158455463,-0.011139078,-0.12083084,0.37871805,317.0,0.04375143,-0.054360136,0.020211896,-1.4363685053295832,0.21018533128752306,145.43616056318695
-87.64724037,41.86967097,0.0,1.2081109,21-14-15-493,1502158455493,-0.007852681,-0.12247845,0.36272857,318.0,0.021380875,-0.06874121,0.01168978,-1.4999886225187842,0.18676925501775082,145.2221707364905
-87.64724037,41.86967097,0.0,1.2081109,21-14-15-560,1502158455561,-0.11053065,-0.16645798,0.775671,321.0,0.14015786,-0.041576963,0.0516372,-1.7274184472328704,0.100623734234803,144.65239635592798
-87.64724037,41.86967097,0.0,1.2081109,21-14-15-561,1502158455562,-0.11053065,-0.16645798,0.775671,321.0,0.14015786,-0.041576963,0.0516372,-1.7274184472328704,0.100623734234803,144.65239635592798
-87.64724037,41.86967097,0.0,1.2081109,21-14-15-594,1502158455595,-0.11444942,-0.09260721,0.5806851,323.0,0.16998528,-0.01760851,0.06495301,-1.774172479483783,0.04786500854315063,144.4497856243887
-87.64724037,41.86967097,0.0,1.2081109,21-14-15-659,1502158455660,0.18246828,0.020324044,0.36477345,330.0,0.18809476,-0.01707588,-0.010680774,-1.7863531613731487,-0.19761526191440051,143.21589829044763
-87.64724037,41.86967097,0.0,1.2081109,21-14-15-661,1502158455662,0.18246828,0.020324044,0.36477345,330.0,0.18809476,-0.01707588,-0.010680774,-1.7863531613731487,-0.19761526191440051,143.21589829044763
-87.64724037,41.86967097,0.0,1.2081109,21-14-15-693,1502158455694,0.11431416,-0.0367433,0.45649597,329.0,0.1918232,-0.014945351,-0.013343935,-1.7934326524478668,-0.20349802914133844,142.88746181401837
-87.64724037,41.86967097,0.0,1.2081109,21-14-15-760,1502158455761,-0.11563825,0.054754995,0.63411725,328.0,0.25680432,-0.014945351,-0.028790269,-1.8432977291440142,-0.21651854415413804,141.51251741333812
-87.64724037,41.86967097,0.0,1.2081109,21-14-15-761,1502158455762,-0.11563825,0.054754995,0.63411725,328.0,0.25680432,-0.014945351,-0.028790269,-1.8432977291440142,-0.21651854415413804,141.51251741333812
-87.64724037,41.86967097,0.0,1.2081109,21-14-15-794,1502158455795,-0.042107645,0.059238054,0.4723834,327.0,0.25893486,-0.012814822,-0.042106073,-1.859965098266138,-0.20451867551479255,141.2072216178169
-87.64724037,41.86967097,0.0,1.2081109,21-14-15-860,1502158455861,-0.048203353,-0.07164616,0.54717153,323.0,0.2546738,0.014349422,0.010624515,-1.827054045193843,-0.10567411884739192,139.7860778175907
-87.64724037,41.86967097,0.0,1.2081109,21-14-15-861,1502158455862,-0.048203353,-0.07164616,0.54717153,323.0,0.2546738,0.014349422,0.010624515,-1.827054045193843,-0.10567411884739192,139.7860778175907
-87.64724037,41.86967097,0.0,1.2081109,21-14-15-895,1502158455896,-0.075794905,-0.05051825,0.4948803,323.0,0.22111797,0.01594732,0.007961354,-1.8086714448164,-0.11954185079164416,139.3673872214689
-87.64724037,41.86967097,0.0,1.2081109,21-14-15-960,1502158455961,0.079632804,-0.115677536,0.53421694,323.0,0.21206322,0.018610481,0.0063634575,-1.7146846267424396,-0.15244996901703006,137.82002152538087
-87.64724037,41.86967097,0.0,1.2081109,21-14-15-960,1502158455961,0.079632804,-0.115677536,0.53421694,323.0,0.21206322,0.018610481,0.0063634575,-1.7146846267424396,-0.15244996901703006,137.82002152538087
-87.64724037,41.86967097,0.0,1.2081109,21-14-15-995,1502158455997,0.056372836,-0.112495884,0.5717737,323.0,0.205139,-0.0074884994,0.030331906,-1.6830059959285089,-0.15926524382865984,137.46265236762747
-87.64724037,41.86967097,0.0,1.2081109,21-14-16-061,1502158456062,0.05168941,-0.16059147,0.3571194,327.0,0.12897259,-0.032522213,0.020744529,-1.7158360472261156,-0.33251140464065976,136.34814307999977
-87.64724037,41.86967097,0.0,1.2081109,21-14-16-061,1502158456062,0.05168941,-0.16059147,0.3571194,327.0,0.12897259,-0.032522213,0.020744529,-1.7158360472261156,-0.33251140464065976,136.34814307999977
-87.64724037,41.86967097,0.0,1.2081109,21-14-16-096,1502158456098,-0.008507495,-0.16219877,0.26251325,328.0,0.13483155,-0.016010614,-0.0101481415,-1.7534021943828915,-0.37228055460902926,136.18268857754538
-87.64724037,41.86967097,0.0,1.2081109,21-14-16-161,1502158456162,-0.08812813,-0.20446336,0.26057935,327.0,0.13163576,0.03139365,-0.0064197155,-1.8133149062349507,-0.38361274557657954,135.1511387675767
-87.64724037,41.86967097,0.0,1.2081109,21-14-16-162,1502158456165,-0.08812813,-0.20446336,0.26057935,327.0,0.13163576,0.03139365,-0.0064197155,-1.8133149062349507,-0.38361274557657954,135.1511387675767
-87.64724037,41.86967097,0.0,1.2081109,21-14-16-196,1502158456197,0.038984872,-0.16774635,0.39427984,327.0,0.071448304,-0.0053579705,-0.0101481415,-1.7822632654424861,-0.38629524901224915,134.88288991811362
-87.64724037,41.86967097,0.0,1.2081109,21-14-16-261,1502158456265,-0.035735942,-0.1227433,0.6453985,326.0,0.040555637,-0.016543247,0.03139717,-1.7511130137938793,-0.3784558193510877,134.11536790070096
-87.64724037,41.86967097,0.0,1.2081109,21-14-16-263,1502158456267,-0.035735942,-0.1227433,0.6453985,326.0,0.040555637,-0.016543247,0.03139717,-1.7511130137938793,-0.3784558193510877,134.11536790070096
-87.64724037,41.86967097,0.0,1.2081109,21-14-16-297,1502158456298,-0.030435327,-0.15374865,0.7063112,327.0,0.040555637,-0.0074884994,0.044180345,-1.7532553453157362,-0.41074481828080894,133.97045860726996
-87.64724037,41.86967097,0.0,1.2081109,21-14-16-361,1502158456362,0.02619537,-0.18816724,0.34708565,332.0,0.011260863,-0.004825338,-2.8128852E-5,-1.8032559585782262,-0.5862522119351194,133.5299114058041
-87.64724037,41.86967097,0.0,1.2081109,21-14-16-362,1502158456363,0.02619537,-0.18816724,0.34708565,332.0,0.011260863,-0.004825338,-2.8128852E-5,-1.8032559585782262,-0.5862522119351194,133.5299114058041
-87.64724037,41.86967097,0.0,1.2081109,21-14-16-396,1502158456397,0.012110554,-0.13690247,0.38194665,332.0,-0.0036528385,-0.016543247,-0.0101481415,-1.8050326615360757,-0.5933669211727456,133.47160891104892
-87.64724116,41.86967083,0.0,1.2619425,21-14-16-463,1502158456464,-0.037953872,-0.12906447,0.4538236,330.0,-0.078753985,0.005827307,-0.022931315,-1.818105216720657,-0.5292670365552039,133.3545394686749
-87.64724116,41.86967083,0.0,1.2619425,21-14-16-465,1502158456466,-0.037953872,-0.12906447,0.4538236,330.0,-0.078753985,0.005827307,-0.022931315,-1.818105216720657,-0.5292670365552039,133.3545394686749
-87.64724116,41.86967083,0.0,1.2619425,21-14-16-497,1502158456498,-0.032421548,-0.13073365,0.5262835,329.0,-0.1187014,0.013284157,-0.017072361,-1.8034164680237215,-0.5044762779932609,133.36015388417263
-87.64724116,41.86967083,0.0,1.2619425,21-14-16-562,1502158456562,0.020718591,-0.12384246,0.52752256,327.0,-0.14959407,0.012751524,-0.0037565543,-1.7323828208207062,-0.42050531868731583,133.6128982042198
-87.64724116,41.86967083,0.0,1.2619425,21-14-16-562,1502158456563,0.020718591,-0.12384246,0.52752256,327.0,-0.14959407,0.012751524,-0.0037565543,-1.7323828208207062,-0.42050531868731583,133.6128982042198
-87.64724116,41.86967083,0.0,1.2619425,21-14-16-597,1502158456597,0.07959924,-0.082629636,0.57469773,327.0,-0.16876882,-0.0037600736,-0.0064197155,-1.7076054558328386,-0.4119512804842418,133.7593511204032
-87.64724116,41.86967083,0.0,1.2619425,21-14-16-665,1502158456666,-0.0061307293,-0.12465872,0.5663737,328.0,-0.27316475,-0.013880086,0.022342425,-1.6950050374746346,-0.3935241504750614,134.4364004520699
-87.64724116,41.86967083,0.0,1.2619425,21-14-16-665,1502158456667,-0.0061307293,-0.12465872,0.5663737,328.0,-0.27316475,-0.013880086,0.022342425,-1.6950050374746346,-0.3935241504750614,134.4364004520699
-87.64724116,41.86967083,0.0,1.2619425,21-14-16-697,1502158456698,0.030666025,-0.1516704,0.5332521,328.0,-0.29127425,-0.010684293,0.015418205,-1.7023541075781567,-0.4095789370059995,134.71586447215014
-87.64724116,41.86967083,0.0,1.2619425,21-14-16-762,1502158456765,-0.023390012,-0.18582381,0.40632087,331.0,-0.3301564,-0.0010969124,0.026603483,-1.7648721097117528,-0.4596385406913601,136.0509069076992
-87.64724116,41.86967083,0.0,1.2619425,21-14-16-761,1502158456765,-0.023390012,-0.18582381,0.40632087,331.0,-0.3301564,-0.0010969124,0.026603483,-1.7648721097117528,-0.4596385406913601,136.0509069076992
-87.64724116,41.86967083,0.0,1.2619425,21-14-16-798,1502158456798,-0.028489368,-0.17246363,0.404499,331.0,-0.3450701,-0.016543247,0.043647714,-1.7721530913669863,-0.4766511545316867,136.39625493251333
-87.64724116,41.86967083,0.0,1.2619425,21-14-16-863,1502158456864,0.05182595,-0.02463039,0.57993644,337.0,-0.35146168,-0.013880086,0.04577824,-1.8008538664244973,-0.6160730846556596,137.90524862584425
-87.64724116,41.86967083,0.0,1.2619425,21-14-16-863,1502158456864,0.05182595,-0.02463039,0.57993644,337.0,-0.35146168,-0.013880086,0.04577824,-1.8008538664244973,-0.6160730846556596,137.90524862584425
-87.64724116,41.86967083,0.0,1.2619425,21-14-16-899,1502158456900,0.111456715,-0.020576188,0.6477556,338.0,-0.35146168,-0.042109594,0.04471298,-1.811111103010564,-0.6554354114815901,138.31470480620817
-87.64724116,41.86967083,0.0,1.2619425,21-14-16-961,1502158456962,-0.005370429,-0.029917182,0.47048563,341.0,-0.30831847,-0.018673776,0.01648347,-1.9735430333138106,-0.7635510628231038,139.90504605255398
-87.64724116,41.86967083,0.0,1.2619425,21-14-16-964,1502158456965,-0.005370429,-0.029917182,0.47048563,341.0,-0.30831847,-0.018673776,0.01648347,-1.9735430333138106,-0.7635510628231038,139.90504605255398
-87.64724116,41.86967083,0.0,1.2619425,21-14-16-998,1502158456999,-0.073051795,-0.003877449,0.42026362,341.0,-0.30192688,-0.010684293,0.017016102,-2.0102809133120165,-0.7713377986420357,140.1805075817806
-87.64724116,41.86967083,0.0,1.2619425,21-14-17-064,1502158457065,-0.07460948,0.051783744,0.48510233,343.0,-0.34347218,0.0068925703,0.028201379,-2.0791185479751673,-0.7999750209237537,141.52856835788765
-87.64724116,41.86967083,0.0,1.2619425,21-14-17-063,1502158457065,-0.07460948,0.051783744,0.48510233,343.0,-0.34347218,0.0068925703,0.028201379,-2.0791185479751673,-0.7999750209237537,141.52856835788765
-87.64724116,41.86967083,0.0,1.2619425,21-14-17-098,1502158457099,-0.06422858,0.05943021,0.5129645,343.0,-0.29713318,0.0068925703,0.017548734,-2.0855773456090603,-0.8173692182231019,141.92119495213666
-87.64724116,41.86967083,0.0,1.2619425,21-14-17-162,1502158457164,0.025783444,0.00766082,0.5630494,346.0,-0.2625121,-3.164797E-5,-0.0069523477,-2.041558910842444,-0.835748883753636,143.30305150425693
-87.64724116,41.86967083,0.0,1.2619425,21-14-17-164,1502158457165,0.025783444,0.00766082,0.5630494,346.0,-0.2625121,-3.164797E-5,-0.0069523477,-2.041558910842444,-0.835748883753636,143.30305150425693
-87.64724116,41.86967083,0.0,1.2619425,21-14-17-200,1502158457201,0.013286372,-0.016035436,0.51193345,345.0,-0.26996896,-0.009619028,0.0037002969,-2.038814882343391,-0.8168240303891174,143.5594158245642
-87.64724116,41.86967083,0.0,1.2619425,21-14-17-263,1502158457264,0.022112934,0.01778992,0.5401033,346.0,-0.24866366,-0.0016295447,0.02607085,-2.043506795416367,-0.7960422727048545,144.77402836466763
-87.64724116,41.86967083,0.0,1.2619425,21-14-17-263,1502158457265,0.022112934,0.01778992,0.5401033,346.0,-0.24866366,-0.0016295447,0.02607085,-2.043506795416367,-0.7960422727048545,144.77402836466763
-87.64724116,41.86967083,0.0,1.2619425,21-14-17-299,1502158457300,-9.038722E-4,0.034413096,0.4821175,347.0,-0.25026157,-0.0069558667,0.025538217,-2.0360981746010185,-0.8113084391909205,145.0571670265213
-87.64724116,41.86967083,0.0,1.2619425,21-14-17-362,1502158457365,-0.010716131,-0.063298,0.49394503,350.0,-0.26837105,0.0047620414,0.04045192,-2.0504917310597626,-0.8744311798703273,145.9259670889469
-87.64724116,41.86967083,0.0,1.2619425,21-14-17-365,1502158457366,-0.034027435,-0.09876946,0.505704,350.0,-0.26837105,0.0047620414,0.04045192,-2.0619873663197175,-0.9001421997012237,146.2255801670787
-87.64724116,41.86967083,0.0,1.2619425,21-14-17-400,1502158457401,-0.06639019,-0.14455056,0.46134776,351.0,-0.26783842,-0.0010969124,0.039386656,-2.0686854340179726,-0.9331186731791626,146.5310125663833
-87.64724116,41.86967083,0.0,1.2619425,21-14-17-464,1502158457465,0.013282264,-0.16643184,0.48416612,354.0,-0.25026157,0.011153628,0.01648347,-2.077751442924107,-1.033230996999861,147.4496730097501
-87.64724116,41.86967083,0.0,1.2619425,21-14-17-466,1502158457467,0.013282264,-0.16643184,0.48416612,354.0,-0.25026157,0.011153628,0.01648347,-2.077751442924107,-1.033230996999861,147.4496730097501
-87.64724188,41.86967078,0.0,1.3152312,21-14-17-534,1502158457535,-0.015329596,-0.09564482,0.38617384,356.0,-0.25398996,0.02074101,-0.0064197155,-2.0653877333093256,-1.0670738372853337,148.61650154642
-87.64724188,41.86967078,0.0,1.3152312,21-14-17-562,1502158457563,0.014400211,-0.045067824,0.49521214,356.0,-0.2294889,0.009555732,-0.009082877,-2.0316796825382553,-1.0355493126145514,149.1963846069541
-87.64724188,41.86967078,0.0,1.3152312,21-14-17-564,1502158457565,0.014400211,-0.045067824,0.49521214,356.0,-0.2294889,0.009555732,-0.009082877,-2.0316796825382553,-1.0355493126145514,149.1963846069541
-87.64724188,41.86967078,0.0,1.3152312,21-14-17-601,1502158457602,-0.024273008,-0.02902738,0.42591304,356.0,-0.22576047,0.019675745,0.0015697678,-2.019227180464264,-1.0118869760086884,149.4618740599925
-87.64724188,41.86967078,0.0,1.3152312,21-14-17-661,1502158457662,-0.06903139,-0.09077539,0.48234686,357.0,-0.26570788,0.02766523,0.00689609,-1.9312259559807619,-0.9817059708919889,150.53674092967742
-87.64724188,41.86967078,0.0,1.3152312,21-14-17-664,1502158457665,-0.06903139,-0.09077539,0.48234686,357.0,-0.26570788,0.02766523,0.00689609,-1.9312259559807619,-0.9817059708919889,150.53674092967742
-87.64724188,41.86967078,0.0,1.3152312,21-14-17-700,1502158457701,-0.046322156,-0.1252165,0.41866556,358.0,-0.27369738,0.025002068,0.008493986,-1.9090837633520499,-0.9790686640987176,150.8349606492185
-87.64724188,41.86967078,0.0,1.3152312,21-14-17-762,1502158457763,-0.0073137814,-0.17009197,0.4812379,1.0,-0.26837105,0.025002068,0.022342425,-1.7882323171685484,-0.9910614090642021,152.07058285120888
-87.64724188,41.86967078,0.0,1.3152312,21-14-17-765,1502158457766,-0.0073137814,-0.17009197,0.4812379,1.0,-0.26837105,0.025002068,0.022342425,-1.7882323171685484,-0.9910614090642021,152.07058285120888
-87.64724188,41.86967078,0.0,1.3152312,21-14-17-802,1502158457803,-0.031774115,-0.15529509,0.52512074,2.0,-0.29660055,0.031926285,0.022342425,-1.758387165259943,-1.0070637952376016,152.37576936370328
-87.64724188,41.86967078,0.0,1.3152312,21-14-17-865,1502158457866,0.058690656,-0.09873751,0.4929791,7.0,-0.29287213,0.036187343,0.0132876765,-1.639356391377073,-1.0744458525555989,153.70365376100222
-87.64724188,41.86967078,0.0,1.3152312,21-14-17-866,1502158457869,0.058690656,-0.09873751,0.4929791,7.0,-0.29287213,0.036187343,0.0132876765,-1.639356391377073,-1.0744458525555989,153.70365376100222
-87.64724188,41.86967078,0.0,1.3152312,21-14-17-902,1502158457902,0.09889261,-0.110065065,0.5345217,9.0,-0.30512267,0.014882055,0.020744529,-1.5662242752732771,-1.0942719707254418,154.3770967527871
-87.64724188,41.86967078,0.0,1.3152312,21-14-17-963,1502158457964,0.01647281,-0.03473104,0.60401464,12.0,-0.33654797,-0.002694809,0.030331906,-1.5304482780092792,-1.143669819793678,155.44427282946663
-87.64724188,41.86967078,0.0,1.3152312,21-14-17-964,1502158457965,0.01647281,-0.03473104,0.60401464,12.0,-0.33654797,-0.002694809,0.030331906,-1.5304482780092792,-1.143669819793678,155.44427282946663
-87.64724188,41.86967078,0.0,1.3152312,21-14-18-005,1502158458006,0.023319183,-0.08086699,0.64794177,14.0,-0.3168406,-0.01707588,0.037256125,-1.5440247730885603,-1.194534665429586,156.21012828072173
-87.64724188,41.86967078,0.0,1.3152312,21-14-18-063,1502158458063,0.01833526,-0.08684297,0.5517054,16.0,-0.25239208,-0.0032274413,0.020211896,-1.5944436287160078,-1.298831547333975,157.2555706954622
-87.64724188,41.86967078,0.0,1.3152312,21-14-18-065,1502158458066,0.01833526,-0.08684297,0.5517054,16.0,-0.25239208,-0.0032274413,0.020211896,-1.5944436287160078,-1.298831547333975,157.2555706954622
-87.64724188,41.86967078,0.0,1.3152312,21-14-18-102,1502158458103,-0.010339508,-0.07197617,0.44265968,18.0,-0.27209947,-0.0016295447,0.009559251,-1.6047202886525267,-1.3300194717447227,157.8427620584082
-87.64724188,41.86967078,0.0,1.3152312,21-14-18-162,1502158458163,-0.05615494,-0.050374247,0.4483434,19.0,-0.25505525,0.0015662487,0.021809792,-1.6137772262136694,-1.3505007544663579,158.7746320876298
-87.64724188,41.86967078,0.0,1.3152312,21-14-18-165,1502158458166,-0.05615494,-0.050374247,0.4483434,19.0,-0.25505525,0.0015662487,0.021809792,-1.6137772262136694,-1.3505007544663579,158.7746320876298
-87.64724188,41.86967078,0.0,1.3152312,21-14-18-203,1502158458204,-0.054980412,-0.0069297412,0.37679747,20.0,-0.24014154,0.014349422,0.015418205,-1.6168281863385494,-1.3852834928146478,159.3624381676011
-87.64724188,41.86967078,0.0,1.3152312,21-14-18-263,1502158458264,-0.1128921,-0.012924626,0.44680905,22.0,-0.22043414,0.013284157,0.013820309,-1.589951071789432,-1.4091924632825716,160.1646848667541
-87.64724188,41.86967078,0.0,1.3152312,21-14-18-267,1502158458268,-0.1128921,-0.012924626,0.44680905,22.0,-0.22043414,0.013284157,0.013820309,-1.589951071789432,-1.4091924632825716,160.1646848667541
-87.64724188,41.86967078,0.0,1.3152312,21-14-18-303,1502158458304,-0.09577728,-0.026507871,0.5700134,23.0,-0.19433516,0.035122078,0.032995068,-1.5582880223445454,-1.4292775950323462,160.66677207264172
-87.64724188,41.86967078,0.0,1.3152312,21-14-18-366,1502158458367,-0.025750512,-0.0384769,0.5833607,28.0,-0.15278986,0.046307355,0.011157148,-1.439419145289346,-1.526236185725497,161.31885023270286
-87.64724188,41.86967078,0.0,1.3152312,21-14-18-367,1502158458368,-0.025750512,-0.0384769,0.5833607,28.0,-0.15278986,0.046307355,0.011157148,-1.439419145289346,-1.526236185725497,161.31885023270286
-87.64724188,41.86967078,0.0,1.3152312,21-14-18-404,1502158458405,-0.0056411237,-0.109620504,0.49905938,31.0,-0.1021898,0.05269894,0.01168978,-1.3455787493957174,-1.5549674831908613,161.67970278693292
-87.64724225,41.86967077,0.0,1.3434601,21-14-18-465,1502158458465,0.08827847,-0.032139726,0.4981175,36.0,-0.06543817,0.036187343,0.028734012,-1.1705982674832764,-1.597780282847265,161.99016220546673
-87.64724225,41.86967077,0.0,1.3434601,21-14-18-467,1502158458469,0.08827847,-0.032139726,0.4981175,36.0,-0.06543817,0.036187343,0.028734012,-1.1705982674832764,-1.597780282847265,161.99016220546673
-87.64724225,41.86967077,0.0,1.3434601,21-14-18-503,1502158458504,0.013523201,-0.09047356,0.45581046,39.0,-0.122429825,0.030328391,0.032995068,-1.0649424980991724,-1.658835237116303,162.1504394245302
-87.64724225,41.86967077,0.0,1.3434601,21-14-18-565,1502158458566,0.15941757,-0.18962127,0.68135643,44.0,-0.098461375,0.0042294096,0.032462437,-0.9567490999949969,-1.7637069221280308,162.58773545595113
-87.64724225,41.86967077,0.0,1.3434601,21-14-18-568,1502158458569,0.15941757,-0.18962127,0.68135643,44.0,-0.098461375,0.0042294096,0.032462437,-0.9567490999949969,-1.7637069221280308,162.58773545595113
-87.64724225,41.86967077,0.0,1.3434601,21-14-18-605,1502158458606,0.18363188,-0.1902939,0.69470406,45.0,-0.03720867,-0.027195891,0.02607085,-0.9482853216745875,-1.8334332284352235,162.81274920796807
-87.64724225,41.86967077,0.0,1.3434601,21-14-18-668,1502158458669,0.0014118087,-0.061381724,0.6443649,44.0,-0.0063159997,-0.06288225,-0.026127107,-1.0658510199804898,-1.9024115223065938,162.98283457867967
-87.64724225,41.86967077,0.0,1.3434601,21-14-18-669,1502158458670,0.0014118087,-0.061381724,0.6443649,44.0,-0.0063159997,-0.06288225,-0.026127107,-1.0658510199804898,-1.9024115223065938,162.98283457867967
-87.64724225,41.86967077,0.0,1.3434601,21-14-18-706,1502158458707,-0.16136459,-0.10729708,0.43051657,40.0,-4.5704527E-4,-0.02932642,-0.025594477,-1.194061568107857,-1.8522984243662102,163.01582439237086
-87.64724225,41.86967077,0.0,1.3434601,21-14-18-765,1502158458766,0.048951857,-0.16851668,0.45499223,37.0,0.027772462,-0.024000097,-0.013343935,-1.2858636861427655,-1.7842672856336501,163.00146733473548
-87.64724225,41.86967077,0.0,1.3434601,21-14-18-770,1502158458771,0.048951857,-0.16851668,0.45499223,37.0,0.027772462,-0.024000097,-0.013343935,-1.2858636861427655,-1.7842672856336501,163.00146733473548
-87.64724225,41.86967077,0.0,1.3434601,21-14-18-805,1502158458806,0.2226477,-0.14696412,0.5696904,36.0,0.08103569,-0.040511698,-0.03571449,-1.3370454952448443,-1.7537414626855707,162.94597887791826
-87.64724225,41.86967077,0.0,1.3434601,21-14-18-866,1502158458866,0.1619893,-0.20424466,0.74925214,31.0,0.07997042,-0.082057014,-0.034649223,-1.4712819777674553,-1.625097090824202,162.6463657997865
-87.64724225,41.86967077,0.0,1.3434601,21-14-18-869,1502158458870,0.1619893,-0.20424466,0.74925214,31.0,0.07997042,-0.082057014,-0.034649223,-1.4712819777674553,-1.625097090824202,162.6463657997865
-87.64724225,41.86967077,0.0,1.3434601,21-14-18-905,1502158458906,0.14525387,-0.25534812,0.6295924,26.0,0.026707198,-0.1033623,-0.027725006,-1.6386730522949544,-1.5523140614200173,162.4640270697039
-87.64724225,41.86967077,0.0,1.3434601,21-14-18-967,1502158458967,0.19614173,-0.16598621,0.56312615,19.0,0.03735984,-0.11614548,-0.023463948,-1.993591559518502,-1.474087477969038,162.357530760165
-87.64724225,41.86967077,0.0,1.3434601,21-14-18-972,1502158458973,0.19614173,-0.16598621,0.56312615,19.0,0.03735984,-0.11614548,-0.023463948,-1.993591559518502,-1.474087477969038,162.357530760165
-87.64724225,41.86967077,0.0,1.3434601,21-14-19-004,1502158459006,0.1050611,-0.26647782,0.54736656,15.0,0.050143015,-0.13105917,0.013820309,-2.260002234321203,-1.4339038742562662,162.27179822570304
-87.64724225,41.86967077,0.0,1.3434601,21-14-19-066,1502158459067,0.16764557,-0.20096692,0.65679026,11.0,0.0416209,-0.18378977,-0.008550244,-2.7359532944629636,-1.4879449712996418,162.16651768983638
-87.64724225,41.86967077,0.0,1.3434601,21-14-19-070,1502158459071,0.16764557,-0.20096692,0.65679026,11.0,0.0416209,-0.18378977,-0.008550244,-2.7359532944629636,-1.4879449712996418,162.16651768983638
-87.64724225,41.86967077,0.0,1.3434601,21-14-19-105,1502158459106,-0.0062191472,-0.16096225,0.5109909,7.0,-0.008446529,-0.2056277,-0.034116592,-3.154073356345638,-1.4811169165637448,162.06664666379254
-87.64724225,41.86967077,0.0,1.3434601,21-14-19-168,1502158459169,0.024430951,-0.297441,0.35671258,2.0,-0.011642322,-0.15502763,-0.03784502,-3.7856541187075465,-1.368975562397596,162.1178594221892
-87.64724225,41.86967077,0.0,1.3434601,21-14-19-169,1502158459170,0.024430951,-0.297441,0.35671258,2.0,-0.011642322,-0.15502763,-0.03784502,-3.7856541187075465,-1.368975562397596,162.1178594221892
-87.64724225,41.86967077,0.0,1.3434601,21-14-19-205,1502158459205,0.1865181,-0.22733893,0.52181363,359.0,0.009662967,-0.15982132,-0.032518696,-4.140689913085748,-1.282203451799579,162.1793311247194
-87.64724225,41.86967077,0.0,1.3434601,21-14-19-267,1502158459268,0.065232456,-0.21190721,0.71615547,357.0,-0.016968645,-0.2173456,0.022875056,-4.7074974302274875,-1.2206887404220343,162.12031829029047
-87.64724225,41.86967077,0.0,1.3434601,21-14-19-270,1502158459271,0.065232456,-0.21190721,0.71615547,357.0,-0.016968645,-0.2173456,0.022875056,-4.7074974302274875,-1.2206887404220343,162.12031829029047
-87.64724225,41.86967077,0.0,1.3434601,21-14-19-306,1502158459307,0.020965775,-0.18135515,0.57906836,356.0,-0.093667686,-0.23811826,0.0500393,-5.197409823919577,-1.27468682861798,162.1524338397678
-87.64724225,41.86967077,0.0,1.3434601,21-14-19-370,1502158459370,-0.0042293817,-0.18992272,0.6212715,356.0,-0.038806565,-0.22853087,0.0351256,-6.005918098994204,-1.4265920500280618,162.4297805012054
-87.64724225,41.86967077,0.0,1.3434601,21-14-19-371,1502158459372,-0.0042293817,-0.18992272,0.6212715,356.0,-0.038806565,-0.22853087,0.0351256,-6.005918098994204,-1.4265920500280618,162.4297805012054
-87.64724225,41.86967077,0.0,1.3434601,21-14-19-405,1502158459405,-0.07755259,-0.23558359,0.6354466,356.0,0.039490372,-0.20935611,0.025005586,-6.52920749272603,-1.5063603352407597,162.50649718596298
-87.64724243,41.86967077,0.0,1.3574239,21-14-19-468,1502158459469,0.0030812887,-0.24999496,0.030126857,355.0,-0.048926577,-0.17526765,0.034060333,-7.211288112490075,-1.627213915858377,162.37169657250365
-87.64724243,41.86967077,0.0,1.3574239,21-14-19-471,1502158459472,0.0030812887,-0.24999496,0.030126857,355.0,-0.048926577,-0.17526765,0.034060333,-7.211288112490075,-1.627213915858377,162.37169657250365
-87.64724243,41.86967077,0.0,1.3574239,21-14-19-505,1502158459506,0.34127247,-0.23471335,0.34241247,355.0,-0.06384028,-0.18165924,-0.020800786,-7.611862485612044,-1.6878418765825836,162.4510497102808
-87.64724243,41.86967077,0.0,1.3574239,21-14-19-568,1502158459569,-0.02389445,-0.21499641,0.601742,354.0,-0.036143404,-0.22373718,0.0063634575,-8.271599849053684,-1.6296773729929301,162.63870232753777
-87.64724243,41.86967077,0.0,1.3574239,21-14-19-569,1502158459570,-0.02389445,-0.21499641,0.601742,354.0,-0.036143404,-0.22373718,0.0063634575,-8.271599849053684,-1.6296773729929301,162.63870232753777
-87.64724243,41.86967077,0.0,1.3574239,21-14-19-604,1502158459605,0.0034115608,-0.121701,0.47256723,353.0,-0.04040446,-0.21894349,0.017016102,-8.779364649688894,-1.633647527169706,162.71671674823767
-87.64724243,41.86967077,0.0,1.3574239,21-14-19-668,1502158459669,-0.09681699,-0.23731726,0.39248165,353.0,-0.08408031,-0.19870347,0.036723495,-9.530055373439364,-1.6817255489025429,162.85980921134944
-87.64724243,41.86967077,0.0,1.3574239,21-14-19-670,1502158459671,-0.09681699,-0.23731726,0.39248165,353.0,-0.08408031,-0.19870347,0.036723495,-9.530055373439364,-1.6817255489025429,162.85980921134944
-87.64724243,41.86967077,0.0,1.3574239,21-14-19-705,1502158459706,-0.12195287,-0.31350294,0.53190434,353.0,-0.036676038,-0.1859203,0.030331906,-9.987561080840681,-1.7345088239215785,163.0268756384479
-87.64724243,41.86967077,0.0,1.3574239,21-14-19-770,1502158459771,0.043411046,-0.36600956,0.2633293,353.0,-0.038273934,-0.16248448,-0.003223922,-10.618614211089207,-1.811043228005687,163.1578376855938
-87.64724243,41.86967077,0.0,1.3574239,21-14-19-771,1502158459772,0.043411046,-0.36600956,0.2633293,353.0,-0.038273934,-0.16248448,-0.003223922,-10.618614211089207,-1.811043228005687,163.1578376855938
-87.64724243,41.86967077,0.0,1.3574239,21-14-19-804,1502158459805,0.025105996,-0.2400396,0.3852594,353.0,-0.024425495,-0.14863604,-0.034116592,-10.994392436203091,-1.793977573477587,163.23081142668616
-87.64724243,41.86967077,0.0,1.3574239,21-14-19-869,1502158459869,0.034797225,-0.18455407,0.45032355,352.0,-0.06810134,-0.15502763,-0.0101481415,-11.51229579888754,-1.6748454139742246,163.3015995072442
-87.64724243,41.86967077,0.0,1.3574239,21-14-19-871,1502158459871,0.034797225,-0.18455407,0.45032355,352.0,-0.06810134,-0.15502763,-0.0101481415,-11.51229579888754,-1.6748454139742246,163.3015995072442
-87.64724243,41.86967077,0.0,1.3574239,21-14-19-905,1502158459905,0.064498454,-0.23078789,0.4330013,351.0,-0.12296246,-0.15183184,0.01435294,-11.869159522642365,-1.6240907051386828,163.448831064993
-87.64724243,41.86967077,0.0,1.3574239,21-14-19-969,1502158459970,0.14840634,-0.17405955,0.50031,351.0,-0.13947405,-0.16568027,0.0031676646,-12.41794217056444,-1.5814888942946093,163.9859161601878
-87.64724243,41.86967077,0.0,1.3574239,21-14-19-971,1502158459972,0.14840634,-0.17405955,0.50031,351.0,-0.13947405,-0.16568027,0.0031676646,-12.41794217056444,-1.5814888942946093,163.9859161601878
-87.64724243,41.86967077,0.0,1.3574239,21-14-20-005,1502158460006,0.20306027,-0.17524923,0.8035255,351.0,-0.048393946,-0.19550768,-0.030388165,-12.78441255538689,-1.5262490990518964,164.2892312008497
-87.64724243,41.86967077,0.0,1.3574239,21-14-20-070,1502158460070,0.025224958,-0.16940105,0.58591366,351.0,7.5586955E-5,-0.20349716,-0.019735523,-13.406439590647244,-1.4251483187922505,164.41763875724587
-87.64724243,41.86967077,0.0,1.3574239,21-14-20-072,1502158460073,0.025224958,-0.16940105,0.58591366,351.0,7.5586955E-5,-0.20349716,-0.019735523,-13.406439590647244,-1.4251483187922505,164.41763875724587
-87.64724243,41.86967077,0.0,1.3574239,21-14-20-105,1502158460106,0.065983236,-0.13217297,0.3123727,350.0,-0.04732868,-0.19177926,-0.00748498,-13.862715010224314,-1.3827536547790986,164.51464110383847
-87.64724243,41.86967077,0.0,1.3574239,21-14-20-170,1502158460170,0.073659904,-0.104429595,0.38354817,350.0,-0.057448693,-0.1843224,0.019679263,-14.515138948612163,-1.3396419276248013,164.69244458831224
-87.64724243,41.86967077,0.0,1.3574239,21-14-20-172,1502158460173,0.073659904,-0.104429595,0.38354817,350.0,-0.057448693,-0.1843224,0.019679263,-14.515138948612163,-1.3396419276248013,164.69244458831224
-87.64724243,41.86967077,0.0,1.3574239,21-14-20-205,1502158460205,0.09473447,-0.15021567,0.40702674,350.0,-0.05691606,-0.17899607,0.0021024002,-14.935228025966504,-1.3478476528606311,164.82372082415986
-87.64724243,41.86967077,0.0,1.3574239,21-14-20-270,1502158460271,-0.003818546,-0.2363997,0.44630775,350.0,-0.060111854,-0.17580028,-0.0026912899,-15.554702278024566,-1.2971076716204872,165.02963736725746
-87.64724243,41.86967077,0.0,1.3574239,21-14-20-273,1502158460274,-0.003818546,-0.2363997,0.44630775,350.0,-0.060111854,-0.17580028,-0.0026912899,-15.554702278024566,-1.2971076716204872,165.02963736725746
-87.64724243,41.86967077,0.0,1.3574239,21-14-20-306,1502158460307,-0.087986946,-0.18631777,0.4446002,350.0,-0.020164438,-0.14117919,-0.0026912899,-15.958077882479886,-1.2569607801745044,165.16599526384755
-87.64724243,41.86967077,0.0,1.3574239,21-14-20-371,1502158460371,-0.037352905,-0.20983727,0.37866992,350.0,0.00806507,-0.11934127,-0.00748498,-16.44117203983301,-1.2385501119884408,165.21932538088697
-87.64724243,41.86967077,0.0,1.3574239,21-14-20-373,1502158460374,-0.037352905,-0.20983727,0.37866992,350.0,0.00806507,-0.11934127,-0.00748498,-16.44117203983301,-1.2385501119884408,165.21932538088697
-87.64724243,41.86967077,0.0,1.3574239,21-14-20-406,1502158460406,0.011478284,-0.18290447,0.38764614,349.0,0.019250346,-0.112949684,-0.020800786,-16.715366568968587,-1.2279205233709027,165.20959919150891
-87.64724253,41.86967079,0.0,1.3659745,21-14-20-471,1502158460472,0.07877935,-0.2135724,0.47554967,349.0,0.040555637,-0.09963387,-0.0101481415,-17.075833217510596,-1.1911874458494567,165.12856582719587
-87.64724253,41.86967079,0.0,1.3659745,21-14-20-475,1502158460475,0.07877935,-0.2135724,0.47554967,349.0,0.040555637,-0.09963387,-0.0101481415,-17.075833217510596,-1.1911874458494567,165.12856582719587
-87.64724253,41.86967079,0.0,1.3659745,21-14-20-506,1502158460507,0.16307296,-0.18641578,0.40736383,349.0,0.03735984,-0.10282967,-0.027725006,-17.296767639045704,-1.1957575894561356,165.03317540524745
-87.64724253,41.86967079,0.0,1.3659745,21-14-20-572,1502158460572,0.24737695,-0.27729315,0.31546468,349.0,0.04641459,-0.114014946,-0.034116592,-17.632867587723695,-1.1326805790276564,164.90321056572043
-87.64724253,41.86967079,0.0,1.3659745,21-14-20-574,1502158460576,0.24737695,-0.27729315,0.31546468,349.0,0.04641459,-0.114014946,-0.034116592,-17.632867587723695,-1.1326805790276564,164.90321056572043
-87.64724253,41.86967079,0.0,1.3659745,21-14-20-606,1502158460607,0.1963894,-0.22954229,0.33849055,348.0,0.033098783,-0.10549283,-0.029855534,-17.884614700152024,-1.088111780424325,164.7928620294897
-87.64724253,41.86967079,0.0,1.3659745,21-14-20-672,1502158460673,0.12638202,-0.20880625,0.5751566,348.0,0.04108827,-0.13105917,-0.04104081,-18.270124237285884,-1.038901761558264,164.74957229053018
-87.64724253,41.86967079,0.0,1.3659745,21-14-20-674,1502158460675,0.12638202,-0.20880625,0.5751566,348.0,0.04108827,-0.13105917,-0.04104081,-18.270124237285884,-1.038901761558264,164.74957229053018
-87.64724253,41.86967079,0.0,1.3659745,21-14-20-707,1502158460707,0.11389403,-0.18042268,0.45825955,348.0,0.032566153,-0.12733075,-0.05329135,-18.561245682732043,-0.9788418804739321,164.643062320613
-87.64724253,41.86967079,0.0,1.3659745,21-14-20-774,1502158460774,0.06536115,-0.20671888,0.36195186,347.0,0.019250346,-0.11934127,-0.0026912899,-18.986757930287375,-0.8750710832181928,164.50078948020166
-87.64724253,41.86967079,0.0,1.3659745,21-14-20-774,1502158460775,0.06536115,-0.20671888,0.36195186,347.0,0.019250346,-0.11934127,-0.0026912899,-18.986757930287375,-0.8750710832181928,164.50078948020166
-87.64724253,41.86967079,0.0,1.3659745,21-14-20-807,1502158460808,-0.037563793,-0.19144623,0.22408728,347.0,-0.045730785,-0.08525281,0.03139717,-19.252242260683893,-0.8859348726190683,164.46174811890592
-87.64724253,41.86967079,0.0,1.3659745,21-14-20-873,1502158460873,0.11945243,-0.28022647,0.6198667,347.0,0.020848244,-0.07566543,0.009026619,-19.519316317609732,-0.9486241630904436,164.58719137320236
-87.64724253,41.86967079,0.0,1.3659745,21-14-20-874,1502158460875,0.11945243,-0.28022647,0.6198667,347.0,0.020848244,-0.07566543,0.009026619,-19.519316317609732,-0.9486241630904436,164.58719137320236
-87.64724253,41.86967079,0.0,1.3659745,21-14-20-909,1502158460910,0.17397858,-0.24937505,0.45222187,347.0,0.04428406,-0.0868507,-0.013876567,-19.675456149583518,-0.9906015452339899,164.54245363413872
-87.64724253,41.86967079,0.0,1.3659745,21-14-20-974,1502158460974,0.12604658,-0.20543975,0.30506238,347.0,-0.008446529,-0.061816987,-0.0069523477,-19.933775611540693,-1.0080126579237045,164.40187468064153
-87.64724253,41.86967079,0.0,1.3659745,21-14-20-976,1502158460977,0.12604658,-0.20543975,0.30506238,347.0,-0.008446529,-0.061816987,-0.0069523477,-19.933775611540693,-1.0080126579237045,164.40187468064153
-87.64724253,41.86967079,0.0,1.3659745,21-14-21-009,1502158461010,0.14011368,-0.16104095,0.45046133,347.0,-0.0057833674,-0.07566543,-0.0042891866,-20.065910743676465,-0.9961391211035778,164.4146471343895
-87.64724253,41.86967079,0.0,1.3659745,21-14-21-075,1502158461076,0.13222298,-0.2509094,0.40070882,347.0,-0.0041854708,-0.04796855,-0.022931315,-20.277086532434918,-0.9619794240736399,164.43151770163945
-87.64724253,41.86967079,0.0,1.3659745,21-14-21-075,1502158461076,0.13222298,-0.2509094,0.40070882,347.0,-0.0041854708,-0.04796855,-0.022931315,-20.277086532434918,-0.9619794240736399,164.43151770163945
-87.64724253,41.86967079,0.0,1.3659745,21-14-21-110,1502158461110,0.12360622,-0.24209565,0.4927755,347.0,-0.0031202063,-0.025065362,-0.028257638,-20.37550785082751,-0.9116026167982705,164.4359846453566
-87.64724253,41.86967079,0.0,1.3659745,21-14-21-176,1502158461177,0.10390286,-0.15524596,0.4694565,347.0,0.025641933,-0.012814822,-0.017072361,-20.46572781957421,-0.8342672129514193,164.4294003429967
-87.64724253,41.86967079,0.0,1.3659745,21-14-21-177,1502158461179,0.10390286,-0.15524596,0.4694565,347.0,0.025641933,-0.012814822,-0.017072361,-20.46572781957421,-0.8342672129514193,164.4294003429967
-87.64724253,41.86967079,0.0,1.3659745,21-14-21-210,1502158461211,0.027167311,-0.14904231,0.3492018,347.0,0.0054019094,0.010088365,-0.014409199,-20.499523595587434,-0.8140643671601678,164.38130215086142
-87.64724253,41.86967079,0.0,1.3659745,21-14-21-275,1502158461276,-0.13801391,-0.16386363,0.19267434,347.0,-0.023892865,0.058557898,0.01435294,-20.465878083735948,-0.7907548525136183,164.37911649032708
-87.64724253,41.86967079,0.0,1.3659745,21-14-21-275,1502158461276,-0.13801391,-0.16386363,0.19267434,347.0,-0.023892865,0.058557898,0.01435294,-20.465878083735948,-0.7907548525136183,164.37911649032708
-87.64724253,41.86967079,0.0,1.3659745,21-14-21-336,1502158461337,-0.16104698,-0.1633235,0.1492757,347.0,-0.027088657,0.14005062,0.03086454,-20.201479753417463,-0.8129007804020326,164.48987483790802
-87.64724253,41.86967079,0.0,1.3659745,21-14-21-379,1502158461380,0.0591433,-0.25519955,0.3871957,347.0,-0.012707587,0.06388422,0.011157148,-19.872169012774467,-0.8570890094025475,164.5672745415826
-87.64724253,41.86967079,0.0,1.3659745,21-14-21-377,1502158461381,0.0591433,-0.25519955,0.3871957,347.0,-0.012707587,0.06388422,0.011157148,-19.872169012774467,-0.8570890094025475,164.5672745415826
-87.64724253,41.86967079,0.0,1.3659745,21-14-21-410,1502158461411,0.23198122,-0.28386062,0.4957816,347.0,0.0032713804,0.05962316,0.012222412,-19.64531623232354,-0.8821834445782917,164.61982601705665
-87.64724257,41.8696708,0.0,1.3694736,21-14-21-477,1502158461478,0.29301372,-0.17456664,0.4949302,347.0,0.01765245,0.07453686,-0.00748498,-19.43606484936374,-0.9086830310932074,164.5924232981065
-87.64724257,41.8696708,0.0,1.3694736,21-14-21-478,1502158461480,0.29301372,-0.17456664,0.4949302,347.0,0.01765245,0.07453686,-0.00748498,-19.43606484936374,-0.9086830310932074,164.5924232981065
-87.64724257,41.8696708,0.0,1.3694736,21-14-21-511,1502158461512,0.30476302,-0.12990025,0.47718394,347.0,-0.0036528385,0.066014744,-0.020800786,-19.275750064259785,-0.9043743556656929,164.55885974852504
-87.64724257,41.8696708,0.0,1.3694736,21-14-21-578,1502158461579,0.23806237,-0.2231966,0.5561498,347.0,-9.896775E-4,0.042046297,-0.017072361,-19.04960762348254,-0.8323164468914401,164.626027828823
-87.64724257,41.8696708,0.0,1.3694736,21-14-21-579,1502158461580,0.23806237,-0.2231966,0.5561498,347.0,-9.896775E-4,0.042046297,-0.017072361,-19.04960762348254,-0.8323164468914401,164.626027828823
-87.64724257,41.8696708,0.0,1.3694736,21-14-21-612,1502158461613,0.16697982,-0.22250156,0.635155,347.0,0.033631418,0.020208377,-0.013343935,-18.932398162230538,-0.8038968835286633,164.62867794222097
-87.64724257,41.8696708,0.0,1.3694736,21-14-21-678,1502158461679,-0.028734287,-0.24250326,0.3537282,347.0,0.01285876,0.06068842,-0.0101481415,-18.837651485611413,-0.8014538636007673,164.52876593504197
-87.64724257,41.8696708,0.0,1.3694736,21-14-21-679,1502158461680,-0.028734287,-0.24250326,0.3537282,347.0,0.01285876,0.06068842,-0.0101481415,-18.837651485611413,-0.8014538636007673,164.52876593504197
-87.64724257,41.8696708,0.0,1.3694736,21-14-21-713,1502158461714,0.056007836,-0.15396732,0.35336146,347.0,0.0059345416,0.07400423,-0.011746038,-18.705839079913922,-0.7887854635159803,164.4975792912917
-87.64724257,41.8696708,0.0,1.3694736,21-14-21-778,1502158461780,0.0960245,-0.26372266,0.39727494,347.0,0.023511404,0.08359161,-0.028257638,-18.44663510845923,-0.7477793022558981,164.4836457053849
-87.64724257,41.8696708,0.0,1.3694736,21-14-21-781,1502158461782,0.0960245,-0.26372266,0.39727494,347.0,0.023511404,0.08359161,-0.028257638,-18.44663510845923,-0.7477793022558981,164.4836457053849
-87.64724257,41.8696708,0.0,1.3694736,21-14-21-814,1502158461815,0.08983916,-0.24427626,0.50372154,347.0,0.05600197,0.07773265,-0.023463948,-18.255336877732805,-0.707794147555027,164.4321733997997
-87.64724257,41.8696708,0.0,1.3694736,21-14-21-878,1502158461879,0.09392072,-0.13885053,0.3819077,347.0,0.009662967,0.077200025,-0.008550244,-17.95653146947038,-0.7005010529861871,164.2508455377142
-87.64724257,41.8696708,0.0,1.3694736,21-14-21-881,1502158461882,0.19171931,-0.1050828,0.404417,347.0,0.0016734836,0.066014744,-0.013876567,-17.840582178120243,-0.706214399505197,164.31537716499247
-87.64724257,41.8696708,0.0,1.3694736,21-14-21-913,1502158461913,0.24240331,-0.15383917,0.5095394,347.0,-0.009511793,0.06708001,-0.0064197155,-17.744667539153046,-0.7014746217471785,164.32321822215965
-87.64724257,41.8696708,0.0,1.3694736,21-14-21-977,1502158461978,0.08431453,-0.22986792,0.5249995,347.0,0.0054019094,0.066014744,0.015950838,-17.50325108784436,-0.6924571712171749,164.37516864098677
-87.64724257,41.8696708,0.0,1.3694736,21-14-21-981,1502158461981,0.08431453,-0.22986792,0.5249995,347.0,0.0054019094,0.066014744,0.015950838,-17.50325108784436,-0.6924571712171749,164.37516864098677
-87.64724257,41.8696708,0.0,1.3694736,21-14-22-013,1502158462013,-0.05997324,-0.2090804,0.30856067,347.0,-0.0041854708,0.12247376,5.045034E-4,-17.33554945315304,-0.7308115115319997,164.373693320126
-87.64724257,41.8696708,0.0,1.3694736,21-14-22-077,1502158462077,-0.014516657,-0.27370328,0.25950024,347.0,-0.012707587,0.17626962,-0.035181858,-16.87971116568285,-0.7034119408722291,164.41355430412227
-87.64724257,41.8696708,0.0,1.3694736,21-14-22-080,1502158462081,-0.014516657,-0.27370328,0.25950024,347.0,-0.012707587,0.17626962,-0.035181858,-16.87971116568285,-0.7034119408722291,164.41355430412227
-87.64724257,41.8696708,0.0,1.3694736,21-14-22-113,1502158462113,0.0338038,-0.30132952,0.4348771,347.0,0.0054019094,0.18053068,-0.039975546,-16.46596733406745,-0.6181588536734522,164.44412623084725
-87.64724257,41.8696708,0.0,1.3694736,21-14-22-177,1502158462178,0.062086914,-0.19945335,0.50775874,346.0,0.016054554,0.19597702,-0.028257638,-15.817758476171145,-0.5123631721330686,164.39934751064857
-87.64724257,41.8696708,0.0,1.3694736,21-14-22-180,1502158462181,0.062086914,-0.19945335,0.50775874,346.0,0.016054554,0.19597702,-0.028257638,-15.817758476171145,-0.5123631721330686,164.39934751064857
-87.64724257,41.8696708,0.0,1.3694736,21-14-22-215,1502158462215,0.1254745,-0.099912964,0.5728797,346.0,-0.006848632,0.1560296,-0.023463948,-15.36248197176019,-0.4598267444195057,164.35392675266803
-87.64724257,41.8696708,0.0,1.3694736,21-14-22-278,1502158462278,0.18518738,-0.15649004,0.50179464,346.0,-0.03987183,0.14271379,-0.003223922,-14.803752007085636,-0.3745901724046985,164.4295369467801
-87.64724257,41.8696708,0.0,1.3694736,21-14-22-280,1502158462282,0.18518738,-0.15649004,0.50179464,346.0,-0.026023392,0.12886535,-0.009082877,-14.803752007085636,-0.3745901724046985,164.4295369467801
-87.64724257,41.8696708,0.0,1.3694736,21-14-22-314,1502158462315,0.20973034,-0.1897935,0.45901975,346.0,-0.010577058,0.14111589,-0.017072361,-14.470834926560874,-0.3444795235725353,164.51797423615335
-87.64724257,41.8696708,0.0,1.3694736,21-14-22-378,1502158462379,0.13535409,-0.18083519,0.47058958,346.0,0.009662967,0.14005062,-0.025061844,-13.965334333635523,-0.2742279330294865,164.5700475983856
-87.64724257,41.8696708,0.0,1.3694736,21-14-22-381,1502158462382,0.13535409,-0.18083519,0.47058958,346.0,0.014456656,0.14164853,-0.025061844,-13.965334333635523,-0.2742279330294865,164.5700475983856
-87.64724257,41.8696708,0.0,1.3694736,21-14-22-415,1502158462416,0.070579186,-0.18827805,0.5355533,346.0,0.008597702,0.14218116,-0.017604992,-13.635092979718115,-0.22540240578892967,164.55659212572073
-87.64724262,41.86967082,0.0,1.374142,21-14-22-478,1502158462479,0.25167817,-0.13338278,0.52093285,345.0,0.016587187,0.112886384,-0.022398682,-13.15622414814029,-0.16989694019988716,164.5328367277873
-87.64724262,41.86967082,0.0,1.374142,21-14-22-482,1502158462482,0.2531997,-0.12999061,0.5455196,345.0,0.0075324387,0.124604285,-0.014409199,-13.01734847306736,-0.1485142592707953,164.5178103116134
-87.64724262,41.86967082,0.0,1.374142,21-14-22-515,1502158462516,0.15852028,-0.13312742,0.4842822,345.0,0.0016734836,0.115016915,-0.0069523477,-12.878891147081092,-0.13037609162023145,164.51408102832647
-87.64724262,41.86967082,0.0,1.374142,21-14-22-579,1502158462580,0.1377289,-0.16347896,0.6167129,345.0,0.0027387482,0.08465687,0.0015697678,-12.510395611169734,-0.1245010883973891,164.61512684690774
-87.64724262,41.86967082,0.0,1.374142,21-14-22-582,1502158462583,0.0975069,-0.17622058,0.57038593,345.0,0.018185083,0.081993714,-0.0026912899,-12.41306370794976,-0.13196383045778173,164.61815945089916
-87.64724262,41.86967082,0.0,1.374142,21-14-22-614,1502158462615,0.11664449,-0.1725862,0.5625155,345.0,0.026707198,0.066014744,-0.0064197155,-12.30816224758212,-0.13865885658742227,164.60749069541566
-87.64724262,41.86967082,0.0,1.374142,21-14-22-679,1502158462680,-0.026463035,-0.21255545,0.39715308,345.0,0.034696683,0.10702743,-0.012811303,-12.029540902090728,-0.14566644391287023,164.51225053762892
-87.64724262,41.86967082,0.0,1.374142,21-14-22-681,1502158462682,-0.012891355,-0.21382509,0.43468773,345.0,0.034696683,0.10702743,-0.012811303,-11.90076366170566,-0.14918842028621673,164.47516261043575
-87.64724262,41.86967082,0.0,1.374142,21-14-22-715,1502158462715,0.05222701,-0.19209844,0.44273528,345.0,0.034696683,0.10223374,-0.014941832,-11.773275619526434,-0.1468216930377412,164.43517868303456
-87.64724262,41.86967082,0.0,1.374142,21-14-22-779,1502158462780,0.074332245,-0.16787465,0.49408567,345.0,0.026174566,0.10915796,-0.027192373,-11.397760356695596,-0.11866350447263639,164.3019080319492
-87.64724262,41.86967082,0.0,1.374142,21-14-22-782,1502158462783,0.092019275,-0.20576543,0.50607187,345.0,0.02457667,0.103831634,-0.028790269,-11.263307229110248,-0.10173139214900205,164.26413708583902
-87.64724262,41.86967082,0.0,1.374142,21-14-22-815,1502158462815,0.13134596,-0.20390953,0.5612128,345.0,0.03682721,0.09957058,-0.029855534,-11.132424582913526,-0.0798446979540375,164.23510878186653
-87.64724262,41.86967082,0.0,1.374142,21-14-22-976,1502158462977,0.060946327,-0.17726868,0.4961695,344.0,0.02937036,0.13419168,-0.03198606,-10.745074309798348,-0.02920048943967264,164.13215051031773
-87.64724262,41.86967082,0.0,1.374142,21-14-22-977,1502158462978,0.093197875,-0.16300757,0.47637132,344.0,0.023511404,0.14377905,-0.028790269,-10.609469441564206,-0.017822403136056365,164.2016681756901
-87.64724262,41.86967082,0.0,1.374142,21-14-22-979,1502158462979,0.043236975,-0.169695,0.48513293,344.0,0.03735984,0.12300639,-0.020800786,-10.466190855797556,0.006721750328660544,164.1744293812801
-87.64724262,41.86967082,0.0,1.374142,21-14-22-982,1502158462983,-0.091507226,-0.189701,0.4160075,344.0,0.024044037,0.13099588,5.045034E-4,-9.862444821850742,0.06729169738373336,164.03297616356917
-87.64724262,41.86967082,0.0,1.374142,21-14-22-985,1502158462985,-0.091507226,-0.189701,0.4160075,344.0,0.024044037,0.13099588,5.045034E-4,-9.862444821850742,0.06729169738373336,164.03297616356917
-87.64724262,41.86967082,0.0,1.374142,21-14-23-016,1502158463017,-0.017774755,-0.1932601,0.46715605,344.0,0.026174566,0.12833272,0.0021024002,-9.708274645678861,0.0657602542459828,164.00557344461902
-87.64724262,41.86967082,0.0,1.374142,21-14-23-080,1502158463081,0.12153373,-0.07674396,0.30752322,344.0,-0.016436012,0.12993062,0.004232929,-9.2396519516297,0.04758000822786127,164.04621307018067
-87.64724262,41.86967082,0.0,1.374142,21-14-23-084,1502158463084,0.21611671,-0.09587594,0.43907157,344.0,-0.016436012,0.12993062,0.004232929,-9.063395505002937,0.044865905162120426,164.06588401499027
-87.64724262,41.86967082,0.0,1.374142,21-14-23-116,1502158463117,0.24303535,-0.1368422,0.49600533,344.0,-0.027088657,0.101168476,0.007428723,-8.897595224221815,0.04232718921467148,164.0835332238056
-87.64724262,41.86967082,0.0,1.374142,21-14-23-183,1502158463184,0.21319747,-0.21099928,0.65043944,344.0,0.0038040127,0.050568413,0.01168978,-8.482551095343174,0.007351151176784895,164.26958757679677
-87.64724262,41.86967082,0.0,1.374142,21-14-23-184,1502158463185,0.21319747,-0.21099928,0.65043944,344.0,0.0038040127,0.050568413,0.01168978,-8.482551095343174,0.007351151176784895,164.26958757679677
-87.64724262,41.86967082,0.0,1.374142,21-14-23-216,1502158463217,0.2349322,-0.1989002,0.64140123,344.0,6.082192E-4,0.038850505,0.009559251,-8.41557426034203,-0.009343559546101932,164.26354968957048
-87.64724262,41.86967082,0.0,1.374142,21-14-23-284,1502158463285,0.05388255,-0.10974169,0.5382875,345.0,0.0064671733,0.023404172,0.009026619,-8.247133257673052,-0.04389393389166257,164.26729263323557
-87.64724262,41.86967082,0.0,1.374142,21-14-23-285,1502158463285,0.05388255,-0.10974169,0.5382875,345.0,0.0064671733,0.023404172,0.009026619,-8.247133257673052,-0.04389393389166257,164.26729263323557
-87.64724262,41.86967082,0.0,1.374142,21-14-23-318,1502158463319,0.057538245,-0.12879957,0.51238775,345.0,-0.008979161,0.024469435,0.014885573,-8.212696297651494,-0.055702844048831995,164.35682275287616
-87.64724262,41.86967082,0.0,1.374142,21-14-23-384,1502158463385,-0.07994325,-0.13172011,0.4994526,345.0,0.0027387482,0.06068842,0.0026350324,-8.04902874343871,-0.12688287674659304,164.3809606414029
-87.64724262,41.86967082,0.0,1.374142,21-14-23-384,1502158463385,-0.07994325,-0.13172011,0.4994526,345.0,0.0027387482,0.06068842,0.0026350324,-8.04902874343871,-0.12688287674659304,164.3809606414029
-87.64724262,41.86967082,0.0,1.374142,21-14-23-418,1502158463419,-0.063831806,-0.14660548,0.44473925,345.0,0.01285876,0.05269894,0.004232929,-7.987422144672488,-0.13803179986489014,164.37859739595012
-87.64724265,41.86967084,0.0,1.3772583,21-14-23-484,1502158463485,0.09407788,-0.1666143,0.5354072,346.0,0.004336645,0.05216631,0.01435294,-7.68845110432269,-0.17766609361779154,164.3513722619184
-87.64724265,41.86967084,0.0,1.3772583,21-14-23-484,1502158463485,0.09407788,-0.1666143,0.5354072,346.0,0.004336645,0.05216631,0.01435294,-7.68845110432269,-0.17766609361779154,164.3513722619184
-87.64724265,41.86967084,0.0,1.3772583,21-14-23-517,1502158463518,0.1225182,-0.19916861,0.5748961,346.0,-0.01110969,0.048437882,0.023940321,-7.614794344313272,-0.1944063536649639,164.34553928036723
-87.64724265,41.86967084,0.0,1.3772583,21-14-23-586,1502158463586,0.085053094,-0.17405337,0.61187243,347.0,0.02723983,0.02127364,0.017016102,-7.424187670240311,-0.26816544645001256,164.4126937002868
-87.64724265,41.86967084,0.0,1.3772583,21-14-23-587,1502158463587,0.085053094,-0.17405337,0.61187243,347.0,0.02723983,0.02127364,0.017016102,-7.424187670240311,-0.26816544645001256,164.4126937002868
-87.64724265,41.86967084,0.0,1.3772583,21-14-23-618,1502158463619,0.103740245,-0.17747302,0.48778915,347.0,0.019782979,0.034056813,0.01168978,-7.364759048045676,-0.31190715183353784,164.3925309818569
-87.64724265,41.86967084,0.0,1.3772583,21-14-23-686,1502158463687,-0.038295977,-0.2024588,0.4921673,347.0,-0.0015223097,0.026067331,0.01168978,-7.226486137167,-0.3620970627216576,164.33563550607073
-87.64724265,41.86967084,0.0,1.3772583,21-14-23-687,1502158463688,-0.038295977,-0.2024588,0.4921673,347.0,-0.0015223097,0.026067331,0.01168978,-7.226486137167,-0.3620970627216576,164.33563550607073
-87.64724265,41.86967084,0.0,1.3772583,21-14-23-801,1502158463802,0.03235761,-0.21423818,0.41780555,348.0,-0.0041854708,0.04524209,-0.0021586576,-7.027739158263853,-0.4625456399568468,164.4139504550941
-87.64724265,41.86967084,0.0,1.3772583,21-14-23-807,1502158463808,0.07871435,-0.22151446,0.44267827,348.0,-0.0041854708,0.04524209,-0.0021586576,-6.9760862795524545,-0.4755070444848567,164.43565679627636
-87.64724265,41.86967084,0.0,1.3772583,21-14-23-808,1502158463809,0.07871435,-0.22151446,0.44267827,348.0,-0.0041854708,0.04524209,-0.0021586576,-6.9760862795524545,-0.4755070444848567,164.43565679627636
-87.64724265,41.86967084,0.0,1.3772583,21-14-23-818,1502158463819,0.07871435,-0.22151446,0.44267827,348.0,0.0059345416,0.050035782,-0.0026912899,-6.9760862795524545,-0.4755070444848567,164.43565679627636
-87.64724265,41.86967084,0.0,1.3772583,21-14-23-887,1502158463888,0.087564245,-0.20261946,0.536265,348.0,0.030435622,0.062286325,-0.0037565543,-6.6996177243100865,-0.4743465526561892,164.4058361903601
-87.64724265,41.86967084,0.0,1.3772583,21-14-23-887,1502158463889,0.087564245,-0.20261946,0.536265,348.0,0.030435622,0.062286325,-0.0037565543,-6.6996177243100865,-0.4743465526561892,164.4058361903601
-87.64724265,41.86967084,0.0,1.3772583,21-14-23-919,1502158463920,0.050806068,-0.19394153,0.48379064,348.0,0.035229314,0.077200025,-0.003223922,-6.62775004697639,-0.46997069591488533,164.374936414555
-87.64724265,41.86967084,0.0,1.3772583,21-14-23-987,1502158463987,0.11984859,-0.09602743,0.57893175,349.0,0.026174566,0.026067331,0.022342425,-6.220242178073211,-0.5274612519325289,164.32447497696694
-87.64724265,41.86967084,0.0,1.3772583,21-14-23-987,1502158463987,0.11984859,-0.09602743,0.57893175,349.0,0.026174566,0.026067331,0.022342425,-6.220242178073211,-0.5274612519325289,164.32447497696694
-87.64724265,41.86967084,0.0,1.3772583,21-14-24-019,1502158464020,0.14498837,-0.13006866,0.4562093,350.0,-0.020164438,0.030861022,-0.0037565543,-6.172304495383477,-0.5655710928194084,164.28730508750368
-87.64724265,41.86967084,0.0,1.3772583,21-14-24-086,1502158464087,0.06291246,-0.13953105,0.6591905,350.0,0.0038040127,0.041513667,-0.0010933933,-5.9863999796672465,-0.5812905063899283,164.36587958371558
-87.64724265,41.86967084,0.0,1.3772583,21-14-24-087,1502158464088,0.06291246,-0.13953105,0.6591905,350.0,0.0038040127,0.041513667,-0.0010933933,-5.9863999796672465,-0.5812905063899283,164.36587958371558
-87.64724265,41.86967084,0.0,1.3772583,21-14-24-120,1502158464121,0.02361004,-0.13259669,0.603874,350.0,0.021380875,0.06335159,0.00689609,-5.928069310381691,-0.5799050985663264,164.41528917217147
-87.64724265,41.86967084,0.0,1.3772583,21-14-24-187,1502158464188,-0.012254269,-0.09711273,0.3628049,351.0,-0.0031202063,0.11661481,0.009026619,-5.6396850632454125,-0.6203477692198827,164.36833845181673
-87.64724265,41.86967084,0.0,1.3772583,21-14-24-188,1502158464189,-0.012254269,-0.09711273,0.3628049,351.0,-0.0031202063,0.11661481,0.009026619,-5.6396850632454125,-0.6203477692198827,164.36833845181673
-87.64724265,41.86967084,0.0,1.3772583,21-14-24-219,1502158464220,-0.097484514,-0.0497224,0.17604026,351.0,0.034696683,0.15176854,0.0015697678,-5.537295404945044,-0.6320379047886239,164.3599783002727
-87.64724265,41.86967084,0.0,1.3772583,21-14-24-288,1502158464289,-0.05451482,-0.17767845,0.61422193,352.0,0.02723983,0.0867874,-0.008017613,-4.87890956518542,-0.669170334933104,164.24741678275086
-87.64724265,41.86967084,0.0,1.3772583,21-14-24-290,1502158464291,-0.05451482,-0.17767845,0.61422193,352.0,0.02723983,0.0867874,-0.008017613,-4.87890956518542,-0.669170334933104,164.24741678275086
-87.64724265,41.86967084,0.0,1.3772583,21-14-24-319,1502158464320,-0.13481623,-0.1709861,0.50418687,352.0,0.018185083,0.079330556,-0.0101481415,-4.780752916623167,-0.666537350368917,164.1968187413794
-87.64724265,41.86967084,0.0,1.3772583,21-14-24-387,1502158464388,0.053935137,-0.16382675,0.44055146,352.0,0.020848244,0.12407166,-0.0010933933,-4.380090604815634,-0.6389104624758319,164.11814862251924
-87.64724265,41.86967084,0.0,1.3772583,21-14-24-388,1502158464389,0.053935137,-0.16382675,0.44055146,352.0,0.020848244,0.12407166,-0.0010933933,-4.380090604815634,-0.6389104624758319,164.11814862251924
-87.64724265,41.86967084,0.0,1.3772583,21-14-24-420,1502158464420,0.11935852,-0.16391233,0.49903083,353.0,0.05120828,0.15975802,0.005830826,-4.245719012613503,-0.6385388574963009,164.10129171564768
-87.64724266,41.86967087,0.0,1.3792198,21-14-24-489,1502158464491,-0.034437593,-0.18668632,0.54983866,355.0,0.16572422,0.31528664,0.01168978,-3.5043160654737826,-0.6756115234855434,163.87715222784448
-87.64724266,41.86967087,0.0,1.3792198,21-14-24-489,1502158464493,-0.034437593,-0.18668632,0.54983866,355.0,0.16572422,0.31528664,0.01168978,-3.5043160654737826,-0.6756115234855434,163.87715222784448
-87.64724266,41.86967087,0.0,1.3792198,21-14-24-519,1502158464519,-0.073166795,-0.21980639,0.50388306,356.0,0.16252843,0.33552665,0.05216983,-3.2076431703362824,-0.6922653389510327,163.72564497167525
-87.64724266,41.86967087,0.0,1.3792198,21-14-24-589,1502158464589,0.11986866,-0.20847477,0.7183815,8.0,0.07624199,0.091048464,-0.005354451,-1.9346771225023225,-0.9188615070604073,163.0666546601741
-87.64724266,41.86967087,0.0,1.3792198,21-14-24-591,1502158464591,0.11986866,-0.20847477,0.7183815,8.0,0.07624199,0.091048464,-0.005354451,-1.9346771225023225,-0.9188615070604073,163.0666546601741
-87.64724266,41.86967087,0.0,1.3792198,21-14-24-620,1502158464621,0.13580589,-0.20131531,0.5994033,10.0,0.0027387482,0.07400423,-0.014409199,-1.8003823699283548,-0.9341653996694671,162.95324619919518
-87.64724266,41.86967087,0.0,1.3792198,21-14-24-689,1502158464689,0.23327257,-0.06676294,0.42428502,8.0,-0.019099174,-0.014412719,-0.061813466,-1.7294445588171312,-0.8302513285237162,162.81130120786395
-87.64724266,41.86967087,0.0,1.3792198,21-14-24-691,1502158464691,0.23327257,-0.06676294,0.42428502,8.0,-0.019099174,-0.014412719,-0.061813466,-1.7294445588171312,-0.8302513285237162,162.81130120786395
-87.64724266,41.86967087,0.0,1.3792198,21-14-24-720,1502158464721,-0.19092317,-0.23483035,0.44137543,3.0,-0.08621083,-0.13318971,-0.039442915,-1.827826070013466,-0.7523416551780551,162.80665667922835
-87.64724266,41.86967087,0.0,1.3792198,21-14-24-789,1502158464790,-0.030886725,-0.19237436,0.6176612,359.0,-0.07236239,-0.13585287,-0.014409199,-2.1297746459545666,-0.5879596525059169,163.24205391806004
-87.64724266,41.86967087,0.0,1.3792198,21-14-24-789,1502158464790,-0.030886725,-0.19237436,0.6176612,359.0,-0.07236239,-0.13585287,-0.014409199,-2.1297746459545666,-0.5879596525059169,163.24205391806004
-87.64724266,41.86967087,0.0,1.3792198,21-14-24-820,1502158464821,0.0674819,-0.1853382,0.7269218,358.0,-0.029219186,-0.0021621769,-0.008017613,-2.2276194536925265,-0.5710708892051496,163.3490556615974
-87.64724266,41.86967087,0.0,1.3792198,21-14-24-890,1502158464891,0.1338004,-0.18894061,0.73794436,356.0,-0.05691606,-0.06501278,0.014885573,-2.4335699342925095,-0.5505247196863993,163.5278017121766
-87.64724266,41.86967087,0.0,1.3792198,21-14-24-891,1502158464891,0.1338004,-0.18894061,0.73794436,356.0,-0.05691606,-0.06501278,0.014885573,-2.4335699342925095,-0.5505247196863993,163.5278017121766
-87.64724266,41.86967087,0.0,1.3792198,21-14-24-919,1502158464920,0.03426715,-0.1979575,0.66778713,356.0,-0.06810134,-0.052229606,0.024472954,-2.493317440944019,-0.5670111955172233,163.59018866005556
-87.64724266,41.86967087,0.0,1.3792198,21-14-24-989,1502158464990,-0.06508245,-0.19363052,0.4759656,358.0,-0.096330844,-0.039446436,0.022342425,-2.7323051196725303,-0.6769569640303301,163.89739690854435
-87.64724266,41.86967087,0.0,1.3792198,21-14-24-995,1502158464995,-0.06508245,-0.19363052,0.4759656,358.0,-0.096330844,-0.039446436,0.022342425,-2.7323051196725303,-0.6769569640303301,163.89739690854435
-87.64724266,41.86967087,0.0,1.3792198,21-14-25-029,1502158465033,-0.07085032,-0.14488038,0.5326668,359.0,-0.04466552,-0.021336937,0.018081367,-2.8096382290027075,-0.7230596203500055,164.10717933871217
-87.64724266,41.86967087,0.0,1.3792198,21-14-25-091,1502158465095,-0.024013277,-0.12414519,0.45273972,0.0,-0.048926577,0.008490467,0.018081367,-2.839710484701216,-0.7736352501632459,164.27320757705684
-87.64724266,41.86967087,0.0,1.3792198,21-14-25-091,1502158465096,-0.024013277,-0.12414519,0.45273972,0.0,-0.048926577,0.008490467,0.018081367,-2.839710484701216,-0.7736352501632459,164.27320757705684
-87.64724266,41.86967087,0.0,1.3792198,21-14-25-121,1502158465121,0.059408855,-0.12297696,0.6108442,0.0,-0.043067623,-0.002694809,0.00689609,-2.8043008630531654,-0.7939474323420704,164.34484260107195
-87.64724266,41.86967087,0.0,1.3792198,21-14-25-191,1502158465191,0.09198019,-0.17578703,0.53861886,1.0,-0.08301504,-0.027728522,-0.010680774,-2.8371493772058725,-0.8204532620767743,164.69818194721506
-87.64724266,41.86967087,0.0,1.3792198,21-14-25-192,1502158465192,0.09198019,-0.17578703,0.53861886,1.0,-0.08301504,-0.027728522,-0.010680774,-2.8371493772058725,-0.8204532620767743,164.69818194721506
